timestamp,gyro_x,gyro_y,gyro_z,acc_x,acc_y,acc_z
966190059900,0.0028082705102860928,-0.004946338012814522,0.0011547482572495937,0.16051022708415985,0.001105358824133873,0.9860981106758118
966195521300,0.0006777415983378887,-0.0017505446448922157,0.0011547482572495937,0.15840451419353485,0.010626843199133873,0.9849079251289368
966200425400,0.0006777415983378887,-0.0006852801889181137,0.0043505416251719,0.16252438724040985,-8.482672274112701e-05,0.9887531399726868
966205411630,0.0017430060543119907,-0.0017505446448922157,8.948380127549171e-05,0.16115109622478485,-0.002190539613366127,0.9815204739570618
966210446270,-0.0014527873136103153,0.0025105131790041924,8.948380127549171e-05,0.15748898684978485,0.011542370542883873,0.9799640774726868
966215414230,0.0017430060543119907,-0.0017505446448922157,-0.0020410451106727123,0.15877072513103485,0.002478649839758873,0.9861896634101868
966220439440,0.0038735349662601948,0.0003799842670559883,-0.0020410451106727123,0.16142575442790985,-0.001732775941491127,0.9889362454414368
966225433110,0.0028082705102860928,-0.0017505446448922157,0.0043505416251719,0.16554562747478485,0.002478649839758873,0.9776752591133118
966230439090,0.0038735349662601948,-0.0006852801889181137,8.948380127549171e-05,0.15547482669353485,0.006964733824133873,0.9854572415351868
966235408970,0.0006777415983378887,0.0025105131790041924,-0.004171574022620916,0.16087643802165985,0.004035046324133873,0.9943378567695618
966240441480,0.0017430060543119907,-0.007076866924762726,0.0022200127132236958,0.16728512942790985,-0.001000354066491127,0.9802387356758118
966245414330,-0.0014527873136103153,0.0014452487230300903,0.0043505416251719,0.15291135013103485,0.003851940855383873,0.9763935208320618
966250489250,-0.0003875228576362133,-0.0006852801889181137,8.948380127549171e-05,0.15785519778728485,0.008612683042883873,0.9906757473945618
966255386500,0.0006777415983378887,-0.0017505446448922157,0.0011547482572495937,0.16783444583415985,0.002295544371008873,0.9870136380195618
966260481410,0.0028082705102860928,-0.006011602468788624,0.0032852771691977978,0.15474240481853485,0.003943493589758873,0.9806964993476868
966265381480,0.0006777415983378887,-0.0028158091008663177,-0.0031063095666468143,0.15419308841228485,0.003760388121008873,0.9827106595039368
966270485120,0.0028082705102860928,-0.0006852801889181137,-0.0031063095666468143,0.16298215091228485,-0.002739856019616127,0.9900348782539368
966275378740,0.0038735349662601948,0.0025105131790041924,0.0043505416251719,0.15886227786540985,0.004492809996008873,0.9867389798164368
966280494240,0.0017430060543119907,-0.0006852801889181137,8.948380127549171e-05,0.15739743411540985,0.005957653746008873,0.9858234524726868
966284499530,-0.0014527873136103153,-0.0017505446448922157,-0.0031063095666468143,0.16563718020915985,0.001654675230383873,0.9846332669258118
966289374240,-0.0014527873136103153,-0.0017505446448922157,-0.0031063095666468143,0.16417233645915985,0.000922253355383873,0.9839923977851868
966290491470,-0.005713845137506723,0.0003799842670559883,-0.0009757806546986103,0.16417233645915985,0.000922253355383873,0.9839923977851868
966295412980,0.0038735349662601948,0.0014452487230300903,-0.0020410451106727123,0.16014401614665985,0.004492809996008873,0.9867389798164368
966300469300,0.0017430060543119907,-0.0028158091008663177,0.0032852771691977978,0.15986935794353485,-0.001000354066491127,0.9856403470039368
966305416540,-0.006779109593480825,0.0003799842670559883,-0.004171574022620916,0.16023556888103485,-0.00017637945711612701,0.9839008450508118
966310461480,-0.0014527873136103153,-0.0006852801889181137,-0.0020410451106727123,0.15849606692790985,0.010077526792883873,0.9812458157539368
966315416130,-0.0003875228576362133,-0.0006852801889181137,8.948380127549171e-05,0.15776364505290985,0.004767468199133873,0.9834430813789368
966320433610,0.0017430060543119907,-0.0017505446448922157,-0.004171574022620916,0.15986935794353485,-0.000634143128991127,0.9877460598945618
966324478660,-0.0014527873136103153,0.0003799842670559883,0.0022200127132236958,0.16316525638103485,0.002478649839758873,0.9793232083320618
966329410070,-0.0014527873136103153,0.0003799842670559883,0.0022200127132236958,0.16206662356853485,0.005866101011633873,0.9799640774726868
966330490440,0.0017430060543119907,0.0003799842670559883,-0.0009757806546986103,0.16206662356853485,0.005866101011633873,0.9799640774726868
966334474740,-0.0025180517695844173,0.0025105131790041924,-0.007367367390543222,0.15849606692790985,0.002203991636633873,0.9920490384101868
966339375520,-0.0025180517695844173,0.0025105131790041924,-0.007367367390543222,0.16463010013103485,-0.003655383363366127,0.9886615872383118
966340495480,-0.0035833162255585194,-0.0028158091008663177,-0.005236838478595018,0.16463010013103485,-0.003655383363366127,0.9886615872383118
966344476790,0.0017430060543119907,0.0014452487230300903,0.0043505416251719,0.15959469974040985,-0.001091906800866127,0.9728229641914368
966349374590,0.0017430060543119907,0.0014452487230300903,0.0043505416251719,0.15538327395915985,0.005774548277258873,0.9894855618476868
966350494620,0.0006777415983378887,0.0014452487230300903,-0.004171574022620916,0.15538327395915985,0.005774548277258873,0.9894855618476868
966354497290,-0.0003875228576362133,0.0014452487230300903,-0.004171574022620916,0.16737668216228485,0.000830700621008873,0.9905841946601868
966359377200,-0.0003875228576362133,0.0014452487230300903,-0.004171574022620916,0.15867917239665985,0.004309704527258873,0.9746540188789368
966360504370,0.0017430060543119907,0.0014452487230300903,0.0011547482572495937,0.15867917239665985,0.004309704527258873,0.9746540188789368
966364482400,0.0038735349662601948,0.0003799842670559883,0.0043505416251719,0.15721432864665985,0.007239392027258873,0.9797809720039368
966369376800,0.0038735349662601948,0.0003799842670559883,0.0043505416251719,0.16463010013103485,0.002387097105383873,0.9900348782539368
966370489590,0.006004063878208399,0.0003799842670559883,-0.0009757806546986103,0.16463010013103485,0.002387097105383873,0.9900348782539368
966374475510,0.0038735349662601948,-0.0028158091008663177,8.948380127549171e-05,0.16197507083415985,0.000556042417883873,0.9826191067695618
966379349620,0.0038735349662601948,-0.0028158091008663177,8.948380127549171e-05,0.15721432864665985,0.012457897886633873,0.9801471829414368
966380519910,0.0017430060543119907,-0.0017505446448922157,-0.005236838478595018,0.15721432864665985,0.012457897886633873,0.9801471829414368
966384529970,-0.0014527873136103153,-0.0006852801889181137,-0.004171574022620916,0.16545407474040985,0.003302624449133873,0.9871967434883118
966389344330,-0.0014527873136103153,-0.0006852801889181137,-0.004171574022620916,0.16508786380290985,-0.001915881410241127,0.9890277981758118
966390518240,0.0006777415983378887,-0.0028158091008663177,0.0022200127132236958,0.16508786380290985,-0.001915881410241127,0.9890277981758118
966394446010,0.0006777415983378887,0.0014452487230300903,0.0022200127132236958,0.15675656497478485,0.010443737730383873,0.9807880520820618
966399434200,0.0038735349662601948,0.0035757776349782944,-0.0031063095666468143,0.16115109622478485,0.009436657652258873,0.9868305325508118
966404437310,0.0017430060543119907,-0.0038810735568404198,-0.0020410451106727123,0.16151730716228485,-0.00017637945711612701,0.9836261868476868
966409373040,0.0017430060543119907,-0.0038810735568404198,-0.0020410451106727123,0.15721432864665985,6.726011633872986e-06,0.9812458157539368
966410491390,0.0038735349662601948,0.0014452487230300903,-0.0020410451106727123,0.15721432864665985,6.726011633872986e-06,0.9812458157539368
966414474020,0.0038735349662601948,-0.0006852801889181137,0.0032852771691977978,0.16151730716228485,0.003943493589758873,0.9860065579414368
966419376720,-0.0003875228576362133,-0.0028158091008663177,-0.005236838478595018,0.16014401614665985,0.003485729917883873,0.9875629544258118
966424497690,-0.0014527873136103153,-0.0006852801889181137,-0.0009757806546986103,0.15950314700603485,0.000372936949133873,0.9835346341133118
966429383360,0.004938799422234297,-0.0017505446448922157,-0.0020410451106727123,0.15950314700603485,0.006781628355383873,0.9822528958320618
966434487110,-0.0003875228576362133,-0.0038810735568404198,-0.0031063095666468143,0.15739743411540985,0.008154919371008873,0.9924152493476868
966439378340,0.0028082705102860928,0.005706306546926498,0.0022200127132236958,0.16417233645915985,-0.004204699769616127,0.9896686673164368
966444482290,0.0028082705102860928,-0.0017505446448922157,0.0032852771691977978,0.16023556888103485,0.000647595152258873,0.9789569973945618
966449376840,-0.006779109593480825,-0.004946338012814522,-0.005236838478595018,0.15584103763103485,0.008246472105383873,0.9820697903633118
966454451200,-0.0003875228576362133,0.0014452487230300903,-0.0031063095666468143,0.16133420169353485,0.001013806089758873,0.9908588528633118
966459411620,0.007069328334182501,0.0003799842670559883,0.005415806081146002,0.16170041263103485,-0.004021594300866127,0.9817035794258118
966464437150,0.009199857711791992,0.0014452487230300903,0.0011547482572495937,0.15446774661540985,0.004767468199133873,0.9786823391914368
966469412730,0.0028082705102860928,0.0014452487230300903,-0.00630210293456912,0.16032712161540985,0.002020886167883873,0.9886615872383118
966474449410,-0.0035833162255585194,-0.007076866924762726,-0.0009757806546986103,0.16069333255290985,0.000647595152258873,0.9867389798164368
966479375950,-0.0035833162255585194,-0.0006852801889181137,0.0043505416251719,0.15629880130290985,0.008429577574133873,0.9821613430976868
966484486920,0.0006777415983378887,-0.0006852801889181137,0.0043505416251719,0.15877072513103485,0.003577282652258873,0.9847248196601868
966489380880,-0.0025180517695844173,-0.0006852801889181137,-0.0020410451106727123,0.16115109622478485,-0.008782336488366127,0.9854572415351868
966494479910,-0.0025180517695844173,0.0014452487230300903,0.007546334993094206,0.15922848880290985,0.004492809996008873,0.9843586087226868
966499385830,0.0028082705102860928,-0.0028158091008663177,-0.00630210293456912,0.15867917239665985,0.010352184996008873,0.9848163723945618
966504504460,0.0017430060543119907,-0.0017505446448922157,-0.0031063095666468143,0.15977780520915985,-0.002282092347741127,0.9867389798164368
966509377620,0.0006777415983378887,0.0003799842670559883,0.0011547482572495937,0.15822140872478485,-0.004296252503991127,0.9817951321601868
966514470700,-0.0003875228576362133,0.0014452487230300903,0.0011547482572495937,0.15712277591228485,0.011176159605383873,0.9825275540351868
966519380230,-0.0003875228576362133,0.0014452487230300903,-0.00630210293456912,0.15840451419353485,0.004767468199133873,0.9920490384101868
966524476740,-0.0003875228576362133,0.0003799842670559883,-0.0031063095666468143,0.16170041263103485,-0.004570910707116127,0.9856403470039368
966529405300,0.0006777415983378887,-0.0038810735568404198,0.0011547482572495937,0.16224972903728485,0.007697155699133873,0.9771259427070618
966534442340,-0.0014527873136103153,-0.0028158091008663177,-0.0009757806546986103,0.15959469974040985,0.008978893980383873,0.9868305325508118
966539413130,0.0006777415983378887,0.0003799842670559883,8.948380127549171e-05,0.16096799075603485,6.726011633872986e-06,0.9914997220039368
966544453490,-0.004648580681532621,-0.0028158091008663177,8.948380127549171e-05,0.16655270755290985,-0.000634143128991127,0.9781330227851868
966549418490,0.0017430060543119907,-0.007076866924762726,-0.0020410451106727123,0.16124264895915985,0.011084606871008873,0.9842670559883118
966554425840,-0.0014527873136103153,0.0003799842670559883,8.948380127549171e-05,0.15977780520915985,0.004218151792883873,0.9943378567695618
966559421690,0.0006777415983378887,0.0025105131790041924,0.0032852771691977978,0.16545407474040985,-0.005120227113366127,0.9855487942695618
966564434120,-0.0035833162255585194,0.0025105131790041924,0.0022200127132236958,0.15803830325603485,0.006598522886633873,0.9771259427070618
966569406530,0.0038735349662601948,-0.0006852801889181137,-0.008432632312178612,0.15822140872478485,0.004218151792883873,0.9835346341133118
966574445160,-0.0025180517695844173,-0.0017505446448922157,0.0011547482572495937,0.16380612552165985,-0.001091906800866127,0.9887531399726868
966579380810,-0.0035833162255585194,-0.0006852801889181137,0.0022200127132236958,0.15300290286540985,0.009161999449133873,0.9825275540351868
966584480250,0.0028082705102860928,0.0014452487230300903,-0.0020410451106727123,0.15410153567790985,0.003851940855383873,0.9825275540351868
966589371890,0.0006777415983378887,-0.0006852801889181137,-0.00630210293456912,0.16334836184978485,-0.005394885316491127,0.9820697903633118
966594485220,0.008134592324495316,-0.0006852801889181137,0.0022200127132236958,0.15758053958415985,0.001837780699133873,0.9849079251289368
966599382230,0.0017430060543119907,-0.0028158091008663177,0.0022200127132236958,0.15382687747478485,0.009528210386633873,0.9840839505195618
966604493470,-0.0014527873136103153,-0.0028158091008663177,-0.004171574022620916,0.15666501224040985,-0.000267932191491127,0.9849994778633118
966609379470,0.0017430060543119907,0.0003799842670559883,-0.0009757806546986103,0.16490475833415985,-0.001091906800866127,0.9810627102851868
966614476840,-0.0035833162255585194,-0.0017505446448922157,8.948380127549171e-05,0.16261593997478485,0.005133679136633873,0.9832599759101868
966619404720,0.007069328334182501,-0.004946338012814522,-0.0020410451106727123,0.15895383059978485,0.005225231871008873,0.9889362454414368
966624438290,-0.0035833162255585194,0.0035757776349782944,-0.0020410451106727123,0.16105954349040985,0.002112438902258873,0.9860981106758118
966629418000,0.007069328334182501,-0.0017505446448922157,0.0022200127132236958,0.16206662356853485,0.005225231871008873,0.9784076809883118
966634439300,0.0028082705102860928,-0.0017505446448922157,0.0022200127132236958,0.15492551028728485,0.002844860777258873,0.9830768704414368
966639410630,-0.005713845137506723,-0.0017505446448922157,-0.0009757806546986103,0.16051022708415985,0.001196911558508873,0.9864643216133118
966644446700,0.0017430060543119907,0.0014452487230300903,0.0022200127132236958,0.16435544192790985,0.000281384214758873,0.9818866848945618
966649430680,0.0038735349662601948,-0.0006852801889181137,8.948380127549171e-05,0.15629880130290985,0.008338024839758873,0.9784076809883118
966654480590,0.006004063878208399,-0.0017505446448922157,-0.0009757806546986103,0.15913693606853485,0.003302624449133873,0.9856403470039368
966659376670,0.0006777415983378887,0.0003799842670559883,0.0032852771691977978,0.16755978763103485,0.000372936949133873,0.9894855618476868
966664476790,0.0028082705102860928,-0.0006852801889181137,0.0011547482572495937,0.15986935794353485,0.011176159605383873,0.9803302884101868
966669373280,-0.0025180517695844173,-0.0017505446448922157,0.0011547482572495937,0.15877072513103485,0.004675915464758873,0.9820697903633118
966674497960,-0.0025180517695844173,-0.0006852801889181137,-0.004171574022620916,0.16737668216228485,0.00018983148038387299,0.9886615872383118
966679374750,0.006004063878208399,-0.006011602468788624,8.948380127549171e-05,0.15748898684978485,0.004492809996008873,0.9839008450508118
966684477890,-0.006779109593480825,0.0014452487230300903,8.948380127549171e-05,0.15794675052165985,0.004492809996008873,0.9837177395820618
966689381480,-0.0035833162255585194,-0.0028158091008663177,-0.0020410451106727123,0.16472165286540985,-0.003472277894616127,0.9884784817695618
966694485150,-0.0025180517695844173,-0.0038810735568404198,0.0022200127132236958,0.16197507083415985,0.001471569761633873,0.9849079251289368
966699400320,0.0006777415983378887,0.0003799842670559883,-0.0009757806546986103,0.15812985599040985,0.010718395933508873,0.9841755032539368
966704449270,0.0038735349662601948,-0.0028158091008663177,-0.00630210293456912,0.15803830325603485,0.002570202574133873,0.9882953763008118
966709415310,-0.0025180517695844173,-0.0006852801889181137,0.0032852771691977978,0.16481320559978485,-0.004570910707116127,0.9824360013008118
966714432850,-0.0014527873136103153,-0.0006852801889181137,0.006481070537120104,0.16343991458415985,0.008521130308508873,0.9794147610664368
966719415450,-0.0003875228576362133,0.0003799842670559883,-0.0031063095666468143,0.15913693606853485,0.005225231871008873,0.9856403470039368
966724441300,-0.0003875228576362133,-0.0028158091008663177,-0.00630210293456912,0.16279904544353485,0.003851940855383873,0.9896686673164368
966729409300,0.008134592324495316,-0.0017505446448922157,0.006481070537120104,0.16032712161540985,9.827874600887299e-05,0.9794147610664368
966734436590,-0.0025180517695844173,0.0003799842670559883,8.948380127549171e-05,0.15346066653728485,0.003943493589758873,0.9774006009101868
966739377390,0.0006777415983378887,-0.0017505446448922157,-0.0009757806546986103,0.15602414309978485,0.003027966246008873,0.9913166165351868
966744484840,0.0017430060543119907,0.0003799842670559883,8.948380127549171e-05,0.16343991458415985,-0.00017637945711612701,0.9845417141914368
966749385440,-0.0014527873136103153,-0.0006852801889181137,-0.0020410451106727123,0.15675656497478485,0.005408337339758873,0.9798725247383118
966754479260,-0.004648580681532621,-0.0017505446448922157,-0.0020410451106727123,0.15721432864665985,0.005316784605383873,0.9860065579414368
966759374420,0.0028082705102860928,-0.0017505446448922157,-0.0020410451106727123,0.16636960208415985,0.000281384214758873,0.9894855618476868
966764485440,0.0028082705102860928,-0.0017505446448922157,-0.0009757806546986103,0.16279904544353485,0.005774548277258873,0.9809711575508118
966769376480,-0.005713845137506723,-0.0028158091008663177,-0.0020410451106727123,0.15336911380290985,0.004675915464758873,0.9827106595039368
966774445780,0.0038735349662601948,0.0035757776349782944,-0.0031063095666468143,0.16490475833415985,-0.000725695863366127,0.9888446927070618
966779413310,0.0017430060543119907,-0.0006852801889181137,0.0032852771691977978,0.15822140872478485,0.006140759214758873,0.9856403470039368
966784430950,-0.0025180517695844173,-0.0038810735568404198,-0.0020410451106727123,0.15153805911540985,0.005957653746008873,0.9825275540351868
966789411460,-0.0003875228576362133,0.0035757776349782944,-0.0020410451106727123,0.16380612552165985,0.003027966246008873,0.9860981106758118
966794452450,0.006004063878208399,-0.0006852801889181137,-0.0031063095666468143,0.16408078372478485,-0.001091906800866127,0.9854572415351868
966799412190,0.0017430060543119907,-0.0017505446448922157,-0.0031063095666468143,0.16005246341228485,0.009345104917883873,0.9819782376289368
966804430660,-0.004648580681532621,0.0003799842670559883,8.948380127549171e-05,0.16023556888103485,0.006964733824133873,0.9874714016914368
966809410870,0.0006777415983378887,-0.0006852801889181137,-0.0020410451106727123,0.16426388919353485,-0.002648303285241127,0.9871967434883118
966814440690,-0.0014527873136103153,-0.0038810735568404198,8.948380127549171e-05,0.16142575442790985,0.001563122496008873,0.9783161282539368
966819392340,-0.0025180517695844173,0.005706306546926498,8.948380127549171e-05,0.16343991458415985,0.006781628355383873,0.9859150052070618
966824493660,-0.004648580681532621,0.0003799842670559883,-0.0020410451106727123,0.16005246341228485,0.007147839292883873,0.9911335110664368
966829375170,0.0028082705102860928,-0.0017505446448922157,8.948380127549171e-05,0.15803830325603485,-0.001824328675866127,0.9781330227851868
966834481170,0.0028082705102860928,-0.004946338012814522,-0.0020410451106727123,0.15858761966228485,0.004584362730383873,0.9778583645820618
966839377770,0.0038735349662601948,-0.0006852801889181137,-0.004171574022620916,0.15574948489665985,0.003943493589758873,0.9899433255195618
966844478470,0.007069328334182501,-0.0028158091008663177,0.0011547482572495937,0.16289059817790985,-0.002007434144616127,0.9876545071601868
966849378910,-0.0003875228576362133,-0.0006852801889181137,0.0022200127132236958,0.15803830325603485,0.001288464292883873,0.9760273098945618
966854481920,0.004938799422234297,-0.0017505446448922157,-0.004171574022620916,0.15767209231853485,0.006873181089758873,0.9776752591133118
966859394590,0.007069328334182501,0.0067715710029006,-0.004171574022620916,0.16847531497478485,0.000464489683508873,0.9897602200508118
966864446950,0.007069328334182501,0.0035757776349782944,0.0032852771691977978,0.15227048099040985,0.009436657652258873,0.9841755032539368
966869431030,0.0006777415983378887,-0.0017505446448922157,0.0022200127132236958,0.16032712161540985,0.004859020933508873,0.9896686673164368
966874436620,-0.0025180517695844173,0.0003799842670559883,0.0011547482572495937,0.16289059817790985,-0.005577990785241127,0.9822528958320618
966879411660,0.0006777415983378887,0.0003799842670559883,0.0011547482572495937,0.15281979739665985,0.006140759214758873,0.9849994778633118
966884433810,0.0017430060543119907,-0.0017505446448922157,-0.0031063095666468143,0.15767209231853485,0.009345104917883873,0.9860981106758118
966889407730,0.007069328334182501,0.0025105131790041924,-0.008432632312178612,0.16270749270915985,0.000372936949133873,0.9863727688789368
966894499160,0.0038735349662601948,0.0014452487230300903,8.948380127549171e-05,0.15849606692790985,0.001563122496008873,0.9828937649726868
966899374790,0.0006777415983378887,-0.0038810735568404198,8.948380127549171e-05,0.15950314700603485,0.009711315855383873,0.9874714016914368
966904480030,-0.0025180517695844173,-0.0038810735568404198,-0.0020410451106727123,0.16069333255290985,0.000647595152258873,0.9899433255195618
966909382040,0.0038735349662601948,-0.0038810735568404198,0.0011547482572495937,0.16215817630290985,-0.000725695863366127,0.9788654446601868
966914477550,-0.0014527873136103153,-0.0038810735568404198,-0.0009757806546986103,0.16188351809978485,0.009161999449133873,0.9822528958320618
966919377050,0.0038735349662601948,0.0025105131790041924,-0.0009757806546986103,0.15620724856853485,0.003577282652258873,0.9923236966133118
966924496220,0.006004063878208399,-0.0028158091008663177,0.0011547482572495937,0.16078488528728485,-0.002373645082116127,0.9858234524726868
966929380720,0.0038735349662601948,-0.0006852801889181137,-0.0009757806546986103,0.16160885989665985,0.002203991636633873,0.9812458157539368
966934486640,0.0006777415983378887,-0.0017505446448922157,-0.0020410451106727123,0.15648190677165985,0.008887341246008873,0.9884784817695618
966939401010,0.0038735349662601948,0.0003799842670559883,-0.0031063095666468143,0.16353146731853485,0.002844860777258873,0.9932392239570618
966944434450,0.0017430060543119907,-0.004946338012814522,0.0011547482572495937,0.16261593997478485,0.004035046324133873,0.9800556302070618
966949417720,-0.0035833162255585194,0.0014452487230300903,0.006481070537120104,0.15721432864665985,0.003302624449133873,0.9789569973945618
966954435060,-0.0014527873136103153,0.0003799842670559883,-0.004171574022620916,0.16224972903728485,-0.003472277894616127,0.9902179837226868
966959414590,-0.004648580681532621,-0.0017505446448922157,-0.004171574022620916,0.16234128177165985,-0.004021594300866127,0.9872882962226868
966964457140,0.0038735349662601948,-0.0006852801889181137,0.0022200127132236958,0.15574948489665985,0.011450817808508873,0.9825275540351868
966969397140,-0.0014527873136103153,0.0014452487230300903,0.0032852771691977978,0.15648190677165985,0.004584362730383873,0.9881122708320618
966974436900,0.0006777415983378887,-0.0006852801889181137,-0.005236838478595018,0.16243283450603485,-0.007592150941491127,0.9818866848945618
966979382050,-0.0014527873136103153,0.0003799842670559883,-0.0009757806546986103,0.15593259036540985,0.007422497496008873,0.9811542630195618
966984480220,0.0017430060543119907,-0.007076866924762726,-0.005236838478595018,0.15748898684978485,0.008704235777258873,0.9881122708320618
966989379480,-0.0003875228576362133,0.0025105131790041924,-0.0020410451106727123,0.16508786380290985,-0.004479357972741127,0.9830768704414368
966994514670,-0.0003875228576362133,-0.0028158091008663177,0.0022200127132236958,0.15629880130290985,0.005133679136633873,0.9782245755195618
966999382350,0.0006777415983378887,-0.0017505446448922157,8.948380127549171e-05,0.15629880130290985,0.010260632261633873,0.9839923977851868
967004487700,-0.0003875228576362133,0.0003799842670559883,8.948380127549171e-05,0.15867917239665985,-0.000817248597741127,0.9880207180976868
967009381610,0.0028082705102860928,0.0014452487230300903,0.0011547482572495937,0.16170041263103485,-0.002282092347741127,0.9824360013008118
967014463420,0.006004063878208399,-0.0006852801889181137,-0.0009757806546986103,0.15977780520915985,0.008887341246008873,0.9795063138008118
967019415000,-0.0025180517695844173,0.0014452487230300903,0.0022200127132236958,0.15959469974040985,0.003668835386633873,0.9896686673164368
967024433710,0.0017430060543119907,0.005706306546926498,-0.0020410451106727123,0.15913693606853485,-8.482672274112701e-05,0.9871967434883118
967029415470,0.0006777415983378887,-0.0006852801889181137,-0.0031063095666468143,0.16206662356853485,0.005225231871008873,0.9789569973945618
967034438040,0.0006777415983378887,-0.0028158091008663177,-0.004171574022620916,0.15684811770915985,0.006049206480383873,0.9806049466133118
967039424570,-0.0003875228576362133,0.005706306546926498,0.0011547482572495937,0.15996091067790985,-0.000817248597741127,0.9908588528633118
967044486450,0.004938799422234297,-0.0038810735568404198,0.0032852771691977978,0.16435544192790985,0.002936413511633873,0.9817951321601868
967049379750,-0.0035833162255585194,-0.0006852801889181137,-0.004171574022620916,0.15776364505290985,0.010352184996008873,0.9788654446601868
967054479740,0.0028082705102860928,0.0035757776349782944,-0.007367367390543222,0.15730588138103485,0.000830700621008873,0.9866474270820618
967059378840,0.0006777415983378887,0.0067715710029006,0.0011547482572495937,0.16435544192790985,-0.001458117738366127,0.9873798489570618
967064477890,0.0038735349662601948,0.0003799842670559883,0.0032852771691977978,0.15748898684978485,0.010901501402258873,0.9797809720039368
967069395640,0.0028082705102860928,0.0025105131790041924,0.0043505416251719,0.15840451419353485,0.008612683042883873,0.9817951321601868
967074475290,0.0017430060543119907,-0.004946338012814522,-0.008432632312178612,0.16655270755290985,-0.005761096253991127,0.9839008450508118
967079378980,0.004938799422234297,-0.0006852801889181137,-0.0020410451106727123,0.15932004153728485,0.004767468199133873,0.9816120266914368
967084501380,-0.0014527873136103153,0.0035757776349782944,0.0011547482572495937,0.15840451419353485,0.011725476011633873,0.9851825833320618
967089379060,0.004938799422234297,0.0025105131790041924,-0.0031063095666468143,0.16334836184978485,-0.000817248597741127,0.9866474270820618
967094435090,0.0017430060543119907,-0.007076866924762726,-0.0009757806546986103,0.15785519778728485,-0.002556750550866127,0.9826191067695618
967099417470,0.0006777415983378887,-0.0028158091008663177,0.0011547482572495937,0.15510861575603485,0.005682995542883873,0.9828022122383118
967104435090,0.004938799422234297,-0.0028158091008663177,-0.00630210293456912,0.16078488528728485,0.003485729917883873,0.9914081692695618
967109420250,-0.0035833162255585194,0.0035757776349782944,0.0022200127132236958,0.15950314700603485,-0.000817248597741127,0.9871051907539368
967114443380,0.006004063878208399,-0.0006852801889181137,0.0022200127132236958,0.15730588138103485,0.007605602964758873,0.9794147610664368
967119406920,-0.0003875228576362133,0.0035757776349782944,-0.0020410451106727123,0.15602414309978485,0.000556042417883873,0.9837177395820618
967124441290,0.009199857711791992,-0.0028158091008663177,-0.005236838478595018,0.16261593997478485,-0.002922961488366127,0.9886615872383118
967129379380,0.006004063878208399,-0.004946338012814522,0.0022200127132236958,0.16353146731853485,0.002570202574133873,0.9840839505195618
967134479170,0.0006777415983378887,-0.0038810735568404198,0.0022200127132236958,0.15703122317790985,0.006140759214758873,0.9794147610664368
967139378580,-0.0025180517695844173,-0.0017505446448922157,-0.0009757806546986103,0.15977780520915985,0.006964733824133873,0.9898517727851868
967144491930,-0.0003875228576362133,-0.0028158091008663177,-0.007367367390543222,0.16453854739665985,0.000830700621008873,0.9845417141914368
967149383850,0.0028082705102860928,-0.0006852801889181137,0.0022200127132236958,0.15611569583415985,0.008704235777258873,0.9763019680976868
967154476440,0.0038735349662601948,0.0003799842670559883,-0.0009757806546986103,0.15629880130290985,0.003851940855383873,0.9857318997383118
967159392720,0.006004063878208399,0.0025105131790041924,8.948380127549171e-05,0.16701047122478485,-0.001824328675866127,0.9850910305976868
967164480640,0.0006777415983378887,-0.004946338012814522,-0.0009757806546986103,0.16279904544353485,0.009802868589758873,0.9768512845039368
967169410960,0.006004063878208399,-0.0006852801889181137,-0.0020410451106727123,0.15309445559978485,0.005682995542883873,0.9791401028633118
967174434200,0.021983031183481216,-0.0006852801889181137,0.0011547482572495937,0.15959469974040985,0.030127575621008873,0.9718158841133118
967179412530,0.01772197335958481,-0.008142131380736828,-0.0031063095666468143,0.14760129153728485,0.11801820248365402,0.9886615872383118
967184447940,-0.016366489231586456,-0.008142131380736828,-0.008432632312178612,0.22001950442790985,0.14740662276744843,1.0024861097335815
967189428290,-0.04938969016075134,0.018489480018615723,-0.004171574022620916,0.18925778567790985,-0.003563830628991127,0.9912250638008118
967194439920,-0.0419328399002552,0.005706306546926498,0.028851624578237534,0.16069333255290985,-0.07378477603197098,0.9795063138008118
967199417630,-0.00784437358379364,0.016358952969312668,0.02991688996553421,0.09047238528728485,-0.09777159243822098,0.9596393704414368
967204439340,-0.00784437358379364,-0.008142131380736828,-0.02654212899506092,0.11061398684978485,-0.07616514712572098,0.9771259427070618
967209383470,0.009199857711791992,-0.010272660292685032,-0.011628424748778343,0.17488400638103485,-0.04366392642259598,1.0075215101242065
967214502610,0.009199857711791992,-0.013468453660607338,0.013937922194600105,0.17003171145915985,-0.05529112368822098,0.9847248196601868
967219376790,0.0017430060543119907,0.0014452487230300903,0.0043505416251719,0.16197507083415985,-0.03661436587572098,0.9816120266914368
967224484820,0.0017430060543119907,0.0067715710029006,-0.004171574022620916,0.12352292239665985,-0.07790464907884598,0.9825275540351868
967229381540,0.02411356009542942,-0.015598982572555542,-0.007367367390543222,0.14137570559978485,-0.05849546939134598,0.9740131497383118
967234500970,0.03263567388057709,-0.010272660292685032,-0.013758953660726547,0.17662350833415985,0.001837780699133873,0.9804218411445618
967239329530,0.018787238746881485,-0.004946338012814522,-0.013758953660726547,0.18403927981853485,0.03855042904615402,1.0052326917648315
967244524080,0.025178825482726097,0.0003799842670559883,0.005415806081146002,0.19337765872478485,0.025458386167883873,0.9936054348945618
967249347350,0.021983031183481216,0.0003799842670559883,-0.0009757806546986103,0.14522092044353485,0.028937390074133873,0.9655902981758118
967254517040,0.019852502271533012,-0.006011602468788624,-0.00949789583683014,0.16874997317790985,0.05567079037427902,0.9635761380195618
967259345710,0.01665670797228813,-0.0038810735568404198,-0.00949789583683014,0.17927853763103485,0.06299500912427902,0.9961689114570618
967264453320,0.01026512123644352,0.0025105131790041924,-0.0031063095666468143,0.19035641849040985,0.07791810482740402,0.9927814602851868
967269410530,-0.005713845137506723,0.005706306546926498,0.0032852771691977978,0.17268674075603485,0.09000306576490402,0.9848163723945618
967274434870,-0.016366489231586456,0.004641042090952396,0.007546334993094206,0.15950314700603485,0.04605775326490402,0.9837177395820618
967279413220,-0.01104016788303852,0.008902099914848804,0.0043505416251719,0.16014401614665985,0.025641491636633873,0.9774921536445618
967284392650,-0.013170696794986725,0.0025105131790041924,0.0032852771691977978,0.15300290286540985,0.025275280699133873,0.9806964993476868
967289392630,-0.017431754618883133,0.0003799842670559883,0.0032852771691977978,0.16911618411540985,0.015021374449133873,0.9882953763008118
967294477460,-0.02275807596743107,0.005706306546926498,0.0022200127132236958,0.15812985599040985,-0.017205188050866127,0.9938800930976868
967299378940,-0.017431754618883133,0.0025105131790041924,0.011807393282651901,0.15291135013103485,-0.03267759829759598,0.9734638333320618
967304496270,-0.01849701814353466,0.005706306546926498,0.009676864370703697,0.13817135989665985,-0.04146666079759598,0.9774006009101868
967309378260,-0.009974902495741844,-0.0017505446448922157,-0.004171574022620916,0.13963620364665985,-0.05684752017259598,0.9914081692695618
967314484870,-0.0003875228576362133,-0.0028158091008663177,0.0011547482572495937,0.15126340091228485,-0.04805845767259598,0.9834430813789368
967319384940,0.0028082705102860928,-0.0028158091008663177,8.948380127549171e-05,0.14915768802165985,-0.04119200259447098,0.9784076809883118
967324480310,0.01026512123644352,-0.0038810735568404198,-0.00630210293456912,0.15300290286540985,-0.03368467837572098,0.9877460598945618
967329416620,0.0038735349662601948,-0.0006852801889181137,-0.007367367390543222,0.14888302981853485,-0.030480334535241127,0.9865558743476868
967334443670,0.01026512123644352,-0.007076866924762726,8.948380127549171e-05,0.15098874270915985,-0.007500598207116127,0.9762104153633118
967339422500,0.011330386623740196,-0.004946338012814522,-0.00949789583683014,0.15767209231853485,0.010809948667883873,0.9842670559883118
967344430170,0.01772197335958481,-0.007076866924762726,-0.008432632312178612,0.16939084231853485,0.011542370542883873,0.9937885403633118
967349409110,0.018787238746881485,-0.0017505446448922157,-0.0009757806546986103,0.17360226809978485,0.029395153746008873,0.9836261868476868
967354446770,0.012395650148391724,-0.0038810735568404198,-0.0009757806546986103,0.16600339114665985,0.03717713803052902,0.9752948880195618
967359393160,0.012395650148391724,-0.004946338012814522,-0.011628424748778343,0.17552487552165985,0.03607850521802902,0.9859150052070618
967364493890,0.006004063878208399,0.0025105131790041924,-0.0009757806546986103,0.17872922122478485,0.03809266537427902,0.9827106595039368
967369378280,-0.0003875228576362133,0.005706306546926498,-0.0020410451106727123,0.17277829349040985,0.04505067318677902,0.9812458157539368
967374478630,-0.014235960319638252,0.0003799842670559883,0.0011547482572495937,0.17689816653728485,0.031226208433508873,0.9843586087226868
967379380740,-0.008909638971090317,0.0025105131790041924,0.0022200127132236958,0.17442624270915985,0.012641003355383873,0.9835346341133118
967384486770,-0.0035833162255585194,0.0003799842670559883,0.0022200127132236958,0.16215817630290985,0.020972302183508873,0.9821613430976868
967389395040,-0.013170696794986725,0.0067715710029006,8.948380127549171e-05,0.15977780520915985,0.014288952574133873,0.9867389798164368
967394478300,-0.009974902495741844,0.007836836390197277,0.0043505416251719,0.15629880130290985,-0.011986682191491127,0.9929645657539368
967399374060,-0.00784437358379364,0.007836836390197277,0.0022200127132236958,0.14961545169353485,-0.018395373597741127,0.9786823391914368
967404457650,-0.004648580681532621,0.005706306546926498,0.0022200127132236958,0.14558713138103485,-0.018029162660241127,0.9812458157539368
967409429130,-0.009974902495741844,-0.006011602468788624,-0.005236838478595018,0.14613644778728485,-0.022423693910241127,0.9928730130195618
967414435780,-0.005713845137506723,-0.0006852801889181137,0.0022200127132236958,0.14348141849040985,-0.026268908753991127,0.9906757473945618
967419419250,0.0017430060543119907,0.0025105131790041924,-0.0031063095666468143,0.14100949466228485,-0.017388293519616127,0.9785907864570618
967424442570,0.0038735349662601948,-0.0017505446448922157,-0.0009757806546986103,0.14018552005290985,-0.020501086488366127,0.9851825833320618
967429404680,0.0017430060543119907,-0.00920739583671093,8.948380127549171e-05,0.14787594974040985,-0.020592639222741127,0.9958027005195618
967434456310,0.006004063878208399,-0.004946338012814522,-0.0009757806546986103,0.15593259036540985,-0.004113147035241127,0.9817951321601868
967439410890,0.009199857711791992,-0.006011602468788624,-0.0031063095666468143,0.15538327395915985,0.004126599058508873,0.9804218411445618
967444442590,0.009199857711791992,-0.0038810735568404198,-0.00630210293456912,0.16673581302165985,-0.000267932191491127,0.9884784817695618
967448481560,0.006004063878208399,-0.0038810735568404198,0.0022200127132236958,0.17204587161540985,0.011084606871008873,0.9876545071601868
967453380420,0.006004063878208399,-0.0038810735568404198,0.0022200127132236958,0.16810910403728485,0.023261120542883873,0.9766681790351868
967454491490,0.007069328334182501,-0.0038810735568404198,0.0032852771691977978,0.16810910403728485,0.023261120542883873,0.9766681790351868
967458498850,0.004938799422234297,-0.007076866924762726,-0.004171574022620916,0.17616574466228485,0.021430065855383873,0.9853656888008118
967463388650,0.004938799422234297,-0.007076866924762726,-0.004171574022620916,0.18742673099040985,0.016669323667883873,0.9867389798164368
967464505730,0.0038735349662601948,-0.0006852801889181137,8.948380127549171e-05,0.18742673099040985,0.016669323667883873,0.9867389798164368
967468492050,0.0028082705102860928,0.0025105131790041924,-0.004171574022620916,0.17772214114665985,0.03397279232740402,0.9788654446601868
967473384550,0.0028082705102860928,0.0025105131790041924,-0.004171574022620916,0.17167966067790985,0.023535778746008873,0.9823444485664368
967474490680,-0.005713845137506723,0.0014452487230300903,0.0011547482572495937,0.17167966067790985,0.023535778746008873,0.9823444485664368
967478505520,-0.0035833162255585194,0.004641042090952396,0.0032852771691977978,0.17625729739665985,0.009894421324133873,0.9845417141914368
967483421570,-0.0035833162255585194,0.004641042090952396,0.0032852771691977978,0.16582028567790985,0.019049694761633873,0.9778583645820618
967484444550,-0.0014527873136103153,0.009967365302145481,0.006481070537120104,0.16582028567790985,0.019049694761633873,0.9778583645820618
967488442990,-0.004648580681532621,0.0003799842670559883,0.0022200127132236958,0.16060177981853485,0.014746716246008873,0.9830768704414368
967493419470,-0.004648580681532621,0.0003799842670559883,0.0022200127132236958,0.15941159427165985,-0.002007434144616127,0.9906757473945618
967494443290,-0.0035833162255585194,0.0035757776349782944,-0.004171574022620916,0.15941159427165985,-0.002007434144616127,0.9906757473945618
967498447640,-0.008909638971090317,0.004641042090952396,0.00861159898340702,0.15126340091228485,-0.007134387269616127,0.9814289212226868
967503427070,-0.004648580681532621,0.0025105131790041924,0.0032852771691977978,0.14073483645915985,-0.002739856019616127,0.9808796048164368
967508491480,-0.0025180517695844173,-0.0006852801889181137,-0.0020410451106727123,0.14192502200603485,-0.014733264222741127,0.9897602200508118
967513390230,-0.0025180517695844173,-0.0006852801889181137,-0.0020410451106727123,0.14384762942790985,-0.020775744691491127,0.9909504055976868
967514484690,-0.0003875228576362133,0.0025105131790041924,0.0022200127132236958,0.14384762942790985,-0.020775744691491127,0.9909504055976868
967518493550,0.0038735349662601948,0.0014452487230300903,0.0022200127132236958,0.14458005130290985,-0.011345813050866127,0.9772174954414368
967523379670,0.0038735349662601948,0.0014452487230300903,0.0022200127132236958,0.14577023684978485,-0.017937609925866127,0.9810627102851868
967524495400,-0.0003875228576362133,-0.006011602468788624,-0.0031063095666468143,0.14577023684978485,-0.017937609925866127,0.9810627102851868
967528493360,-0.0003875228576362133,-0.007076866924762726,-0.0009757806546986103,0.15437619388103485,-0.015007922425866127,0.9951618313789368
967533377070,-0.0003875228576362133,-0.007076866924762726,-0.0009757806546986103,0.15849606692790985,-0.001732775941491127,0.9816120266914368
967534514020,0.007069328334182501,-0.0038810735568404198,-0.0009757806546986103,0.15849606692790985,-0.001732775941491127,0.9816120266914368
967538490550,0.009199857711791992,-0.004946338012814522,-0.0031063095666468143,0.15941159427165985,0.001013806089758873,0.9764850735664368
967543386020,0.009199857711791992,-0.004946338012814522,-0.0031063095666468143,0.16810910403728485,-0.000542590394616127,0.9881122708320618
967544484880,0.012395650148391724,-0.004946338012814522,-0.00630210293456912,0.16810910403728485,-0.000542590394616127,0.9881122708320618
967548499230,0.009199857711791992,0.0014452487230300903,0.0011547482572495937,0.17589108645915985,0.001196911558508873,0.9865558743476868
967553402030,0.009199857711791992,-0.0038810735568404198,-0.0020410451106727123,0.16966550052165985,0.012732556089758873,0.9782245755195618
967558434320,0.008134592324495316,0.0003799842670559883,-0.005236838478595018,0.17103879153728485,0.015479138121008873,0.9829853177070618
967563427170,0.0038735349662601948,-0.0017505446448922157,-0.0009757806546986103,0.18367306888103485,0.015845349058508873,0.9865558743476868
967568448010,-0.0003875228576362133,0.0025105131790041924,0.005415806081146002,0.17341916263103485,0.024085095152258873,0.9807880520820618
967573419610,-0.004648580681532621,0.0035757776349782944,0.0043505416251719,0.16463010013103485,0.024085095152258873,0.9851825833320618
967578448460,0.0038735349662601948,-0.0017505446448922157,-0.004171574022620916,0.16838376224040985,0.014380505308508873,0.9913166165351868
967583424990,-0.0035833162255585194,0.0067715710029006,8.948380127549171e-05,0.16371457278728485,0.020422985777258873,0.9815204739570618
967588494830,-0.0035833162255585194,0.0067715710029006,0.0043505416251719,0.15281979739665985,0.017310192808508873,0.9832599759101868
967593390180,-0.0035833162255585194,0.0025105131790041924,8.948380127549171e-05,0.15492551028728485,0.003485729917883873,0.9904926419258118
967598491070,-0.0035833162255585194,0.0003799842670559883,-0.0009757806546986103,0.14979855716228485,-0.003838488832116127,0.9881122708320618
967603388980,-0.0035833162255585194,-0.0038810735568404198,-0.0009757806546986103,0.14485470950603485,0.001380017027258873,0.9799640774726868
967608505020,-0.004648580681532621,-0.0038810735568404198,8.948380127549171e-05,0.14796750247478485,-0.006310412660241127,0.9878376126289368
967613383980,-0.0003875228576362133,0.0003799842670559883,8.948380127549171e-05,0.15089718997478485,-0.014458606019616127,0.9925068020820618
967618484550,-0.0035833162255585194,0.0014452487230300903,0.006481070537120104,0.14851681888103485,-0.010888049378991127,0.9827106595039368
967623418930,-0.0014527873136103153,-0.008142131380736828,-0.0009757806546986103,0.14741818606853485,-0.014183947816491127,0.9820697903633118
967628443590,0.0028082705102860928,-0.008142131380736828,0.0011547482572495937,0.15529172122478485,-0.013726184144616127,0.9905841946601868
967633424170,0.01026512123644352,-0.0028158091008663177,0.0022200127132236958,0.16673581302165985,-0.010247180238366127,0.9857318997383118
967638449560,0.007069328334182501,-0.006011602468788624,0.0032852771691977978,0.15748898684978485,-0.005577990785241127,0.9721820950508118
967643423590,0.004938799422234297,-0.004946338012814522,-0.005236838478595018,0.16472165286540985,-0.002190539613366127,0.9807880520820618
967648436610,0.009199857711791992,-0.008142131380736828,-0.004171574022620916,0.17488400638103485,0.001105358824133873,0.9857318997383118
967653422390,0.009199857711791992,0.0014452487230300903,-0.0031063095666468143,0.16902463138103485,0.015936901792883873,0.9797809720039368
967658484280,-0.0014527873136103153,0.0025105131790041924,-0.0020410451106727123,0.16737668216228485,0.019690563902258873,0.9818866848945618
967663417510,0.0028082705102860928,0.0035757776349782944,0.0032852771691977978,0.17726437747478485,0.013373425230383873,0.9854572415351868
967668485850,-0.0014527873136103153,0.004641042090952396,8.948380127549171e-05,0.16975705325603485,0.014380505308508873,0.9808796048164368
967673386070,0.0006777415983378887,-0.0017505446448922157,8.948380127549171e-05,0.15996091067790985,0.022254040464758873,0.9852741360664368
967678503670,-0.0025180517695844173,0.0025105131790041924,-0.0009757806546986103,0.16646115481853485,0.014929821714758873,0.9882038235664368
967683401380,0.0006777415983378887,0.009967365302145481,0.0043505416251719,0.16105954349040985,0.009161999449133873,0.9828022122383118
967688486670,-0.004648580681532621,0.0014452487230300903,0.006481070537120104,0.15144650638103485,0.016394665464758873,0.9776752591133118
967693383880,-0.0025180517695844173,0.005706306546926498,-0.005236838478595018,0.15529172122478485,0.008887341246008873,0.9901264309883118
967698488720,0.004938799422234297,0.0003799842670559883,0.0011547482572495937,0.15254513919353485,-0.005211779847741127,0.9917743802070618
967703421150,0.0028082705102860928,-0.0006852801889181137,-0.0031063095666468143,0.14421384036540985,-0.001000354066491127,0.9802387356758118
967708450360,-0.0003875228576362133,-0.0006852801889181137,8.948380127549171e-05,0.15236203372478485,-0.002648303285241127,0.9849994778633118
967713418540,0.0028082705102860928,-0.0017505446448922157,-0.0009757806546986103,0.15465085208415985,-0.009331652894616127,0.9950702786445618
967718445130,0.006004063878208399,0.0014452487230300903,0.0022200127132236958,0.15355221927165985,-0.008690783753991127,0.9830768704414368
967723427930,-0.0003875228576362133,-0.0028158091008663177,-0.004171574022620916,0.15437619388103485,-0.004479357972741127,0.9784076809883118
967728496320,0.007069328334182501,-0.0038810735568404198,-0.0009757806546986103,0.15748898684978485,-0.003289172425866127,0.9871051907539368
967733414710,0.008134592324495316,-0.0028158091008663177,0.0043505416251719,0.16554562747478485,-0.008599231019616127,0.9865558743476868
967738483200,0.008134592324495316,-0.0017505446448922157,8.948380127549171e-05,0.16316525638103485,-0.000908801332116127,0.9755695462226868
967743386620,0.0017430060543119907,-0.006011602468788624,-0.008432632312178612,0.16426388919353485,0.006690075621008873,0.9823444485664368
967748488700,0.0006777415983378887,-0.0017505446448922157,8.948380127549171e-05,0.17003171145915985,0.002936413511633873,0.9904010891914368
967753386420,0.0017430060543119907,-0.0017505446448922157,0.0011547482572495937,0.16957394778728485,0.011359265074133873,0.9843586087226868
967758487630,0.0038735349662601948,-0.0038810735568404198,0.0011547482572495937,0.16490475833415985,0.019599011167883873,0.9822528958320618
967763382520,0.0017430060543119907,0.0035757776349782944,-0.005236838478595018,0.16792599856853485,0.010077526792883873,0.9852741360664368
967768492550,0.004938799422234297,-0.0006852801889181137,0.0011547482572495937,0.16820065677165985,0.008612683042883873,0.9751117825508118
967773384310,0.0017430060543119907,0.0014452487230300903,-0.0009757806546986103,0.15904538333415985,0.016669323667883873,0.9794147610664368
967778456380,-0.0014527873136103153,0.0003799842670559883,-0.0009757806546986103,0.15968625247478485,0.014380505308508873,0.9882953763008118
967783427910,0.011330386623740196,0.007836836390197277,0.0043505416251719,0.15904538333415985,-0.003289172425866127,0.9840839505195618
967788448050,0.036896731704473495,-0.008142131380736828,0.01606845110654831,0.15730588138103485,0.04779725521802902,0.9500263333320618
967793418230,-0.03554125130176544,-0.004946338012814522,-0.03080318681895733,0.14467160403728485,0.16754822432994843,1.0185993909835815
967798540020,-0.034475989639759064,0.0035757776349782944,0.005415806081146002,0.21004025638103485,0.05667787045240402,1.0034931898117065
967803400590,-0.031280193477869034,-0.0017505446448922157,0.04056953266263008,0.16874997317790985,0.004950573667883873,0.9799640774726868
967808492940,-0.023823341354727745,0.012097894214093685,0.012872656807303429,0.14879147708415985,-0.017571398988366127,0.9720905423164368
967813383850,-0.01104016788303852,0.0035757776349782944,-0.024411600083112717,0.11390988528728485,-0.06261534243822098,0.9760273098945618
967818493960,-0.023823341354727745,0.0003799842670559883,-0.0009757806546986103,0.17149655520915985,-0.023156115785241127,1.0053242444992065
967823394740,0.0006777415983378887,-0.0017505446448922157,0.02672109566628933,0.16783444583415985,-0.08193296939134598,0.9640339016914368
967828492130,-0.017431754618883133,0.004641042090952396,-0.01269369013607502,0.12123410403728485,-0.03780455142259598,0.9957111477851868
967833379100,0.0017430060543119907,0.0035757776349782944,0.007546334993094206,0.15336911380290985,-0.11809629946947098,0.9834430813789368
967838486730,0.011330386623740196,-0.011337924748659134,0.0022200127132236958,0.11940304934978485,-0.09108824282884598,0.9798725247383118
967843390360,0.023048296570777893,-0.008142131380736828,-0.016954747959971428,0.14522092044353485,-0.07424253970384598,0.9654071927070618
967848501600,0.02837461791932583,-0.011337924748659134,-0.01269369013607502,0.14055173099040985,-0.04174131900072098,1.0041340589523315
967853359210,0.026244089007377625,-0.0038810735568404198,0.00861159898340702,0.18120114505290985,-0.03194517642259598,0.9897602200508118
967858517640,0.02837461791932583,-0.010272660292685032,-0.008432632312178612,0.12562863528728485,-0.021416613832116127,0.9758442044258118
967863349620,0.030505146831274033,-0.013468453660607338,-0.018020013347268105,0.15025632083415985,0.004492809996008873,0.9827106595039368
967868520830,0.036896731704473495,-0.004946338012814522,-0.0009757806546986103,0.19960324466228485,0.011908581480383873,0.9867389798164368
967873369500,0.03157041221857071,-0.010272660292685032,-0.008432632312178612,0.15849606692790985,0.05173402279615402,0.9823444485664368
967878518080,0.01772197335958481,0.0003799842670559883,-0.008432632312178612,0.19969479739665985,0.07691102474927902,0.9774006009101868
967883379950,0.015591444447636604,-0.0038810735568404198,0.0011547482572495937,0.17671506106853485,0.07608705013990402,0.9942463040351868
967888491310,0.009199857711791992,0.007836836390197277,0.0011547482572495937,0.16865842044353485,0.08203797787427902,0.9756610989570618
967893381930,-0.0003875228576362133,-0.0017505446448922157,-0.01269369013607502,0.16865842044353485,0.08203797787427902,0.9756610989570618
967898509200,-0.009974902495741844,0.009967365302145481,0.005415806081146002,0.18165890872478485,0.07681947201490402,0.9932392239570618
967903398870,-0.012105431407690048,0.007836836390197277,0.010742127895355225,0.15611569583415985,0.04907899349927902,0.9776752591133118
967908495680,-0.028084399178624153,0.007836836390197277,0.0022200127132236958,0.16994015872478485,0.015662243589758873,0.9816120266914368
967913385710,-0.023823341354727745,0.009967365302145481,0.0043505416251719,0.14824216067790985,-0.005669543519616127,0.9955280423164368
967918491430,-0.01849701814353466,0.0025105131790041924,0.0043505416251719,0.15648190677165985,-0.014092395082116127,0.9790485501289368
967923406580,-0.017431754618883133,0.0067715710029006,0.0032852771691977978,0.14128415286540985,-0.03148741275072098,0.9825275540351868
967928453860,-0.019562283530831337,0.0035757776349782944,0.0043505416251719,0.14769284427165985,-0.06050962954759598,0.9922321438789368
967933420610,-0.016366489231586456,0.004641042090952396,0.00861159898340702,0.13441769778728485,-0.05858702212572098,0.9857318997383118
967938444660,-0.005713845137506723,0.004641042090952396,0.0011547482572495937,0.12562863528728485,-0.06609434634447098,0.9768512845039368
967943427960,0.009199857711791992,-0.0017505446448922157,-0.008432632312178612,0.14979855716228485,-0.06435484439134598,0.9849994778633118
967948453520,0.0134609155356884,-0.0028158091008663177,8.948380127549171e-05,0.14155881106853485,-0.04695982486009598,0.9934223294258118
967953423660,0.011330386623740196,-0.012403189204633236,8.948380127549171e-05,0.15144650638103485,-0.028008410707116127,0.9796894192695618
967958450410,0.019852502271533012,-0.0028158091008663177,-0.008432632312178612,0.14824216067790985,-0.018761584535241127,0.9861896634101868
967963431780,0.018787238746881485,-0.013468453660607338,-0.00630210293456912,0.16325680911540985,-0.011437365785241127,0.9852741360664368
967968479130,0.019852502271533012,-0.007076866924762726,-0.0009757806546986103,0.16655270755290985,0.022711804136633873,0.9834430813789368
967973386620,0.021983031183481216,-0.008142131380736828,-0.005236838478595018,0.16893307864665985,0.04267030209302902,0.9863727688789368
967978484970,0.014526179060339928,-0.007076866924762726,-0.00949789583683014,0.18587033450603485,0.04358582943677902,0.9905841946601868
967983387350,0.014526179060339928,-0.0038810735568404198,-0.004171574022620916,0.17424313724040985,0.05036073178052902,0.9842670559883118
967988485880,0.008134592324495316,-0.004946338012814522,-0.005236838478595018,0.17900387942790985,0.05493836849927902,0.9760273098945618
967993389460,0.0028082705102860928,0.0014452487230300903,-0.0020410451106727123,0.18046872317790985,0.04688172787427902,0.9843586087226868
967998510380,-0.0035833162255585194,0.0014452487230300903,0.0022200127132236958,0.18220822513103485,0.04395204037427902,0.9852741360664368
968003411050,0.0006777415983378887,-0.004946338012814522,0.006481070537120104,0.17497555911540985,0.04532533138990402,0.9757526516914368
968008450040,-0.008909638971090317,0.0014452487230300903,0.005415806081146002,0.16774289309978485,0.022070934996008873,0.9805133938789368
968013418570,-0.009974902495741844,0.0035757776349782944,-0.0031063095666468143,0.16298215091228485,0.008521130308508873,0.9907673001289368
968018461530,-0.02169281244277954,0.007836836390197277,0.005415806081146002,0.15135495364665985,0.000372936949133873,0.9854572415351868
968023424670,-0.016366489231586456,0.009967365302145481,0.006481070537120104,0.14604489505290985,-0.017022082582116127,0.9779499173164368
968028460640,-0.008909638971090317,0.005706306546926498,-0.0020410451106727123,0.14686886966228485,-0.030663440003991127,0.9906757473945618
968033422060,-0.014235960319638252,0.0003799842670559883,0.0022200127132236958,0.14155881106853485,-0.03514952212572098,0.9865558743476868
968038483960,-0.005713845137506723,0.0025105131790041924,-0.0009757806546986103,0.13798825442790985,-0.03542418032884598,0.9808796048164368
968043389960,0.0038735349662601948,-0.0028158091008663177,-0.0020410451106727123,0.13579098880290985,-0.04302305728197098,0.9888446927070618
968048506370,0.0028082705102860928,-0.0028158091008663177,-0.0031063095666468143,0.14604489505290985,-0.03359312564134598,0.9904010891914368
968053386230,0.01026512123644352,-0.00920739583671093,0.0022200127132236958,0.14421384036540985,-0.027092883363366127,0.9801471829414368
968058488080,0.01026512123644352,-0.004946338012814522,-0.005236838478595018,0.14577023684978485,-0.016655871644616127,0.9819782376289368
968063380960,0.014526179060339928,-0.008142131380736828,-0.007367367390543222,0.16334836184978485,-0.011528918519616127,0.9860065579414368
968068500660,0.009199857711791992,-0.00920739583671093,-0.0031063095666468143,0.16179196536540985,0.003485729917883873,0.9786823391914368
968073383160,0.014526179060339928,-0.00920739583671093,-0.0031063095666468143,0.16362302005290985,0.020972302183508873,0.9835346341133118
968078450160,0.015591444447636604,-0.0028158091008663177,-0.005236838478595018,0.17845456302165985,0.019507458433508873,0.9879291653633118
968083423770,0.008134592324495316,-0.0028158091008663177,-0.00630210293456912,0.17946164309978485,0.027014782652258873,0.9827106595039368
968088450970,0.009199857711791992,-0.0017505446448922157,-0.0009757806546986103,0.17744748294353485,0.03983216732740402,0.9750202298164368
968093439420,0.0038735349662601948,0.0025105131790041924,-0.0009757806546986103,0.18028561770915985,0.03827577084302902,0.9862812161445618
968098459070,0.0017430060543119907,-0.0017505446448922157,-0.0009757806546986103,0.18074338138103485,0.03369813412427902,0.9886615872383118
968103382930,-0.0035833162255585194,0.0003799842670559883,0.0022200127132236958,0.17039792239665985,0.03333192318677902,0.9748371243476868
968108482780,-0.005713845137506723,0.0025105131790041924,0.0022200127132236958,0.16646115481853485,0.028937390074133873,0.9782245755195618
968113376990,-0.00784437358379364,0.005706306546926498,-0.0020410451106727123,0.16124264895915985,0.014105847105383873,0.9942463040351868
968118504670,-0.00784437358379364,0.005706306546926498,0.0022200127132236958,0.15602414309978485,0.009528210386633873,0.9860065579414368
968123384500,-0.00784437358379364,0.0067715710029006,0.00861159898340702,0.15144650638103485,-0.001824328675866127,0.9781330227851868
968128489810,-0.006779109593480825,0.0014452487230300903,-0.004171574022620916,0.14522092044353485,-0.013176867738366127,0.9843586087226868
968133386100,-0.005713845137506723,0.0035757776349782944,0.0022200127132236958,0.14622800052165985,-0.019310900941491127,0.9879291653633118
968138486510,-0.0025180517695844173,-0.0006852801889181137,0.0043505416251719,0.14073483645915985,-0.019036242738366127,0.9860981106758118
968143386610,-0.0014527873136103153,-0.0028158091008663177,0.0022200127132236958,0.14219968020915985,-0.021141955628991127,0.9893940091133118
968148530580,0.0028082705102860928,-0.004946338012814522,-0.0020410451106727123,0.15062253177165985,-0.03176207095384598,0.9886615872383118
968153352240,0.008134592324495316,-0.006011602468788624,0.0011547482572495937,0.14787594974040985,-0.022789904847741127,0.9787738919258118
968158447300,0.011330386623740196,-0.006011602468788624,-0.0031063095666468143,0.15098874270915985,-0.013359973207116127,0.9816120266914368
968163435710,0.006004063878208399,-0.0038810735568404198,-0.0009757806546986103,0.16298215091228485,-0.012719104066491127,0.9903095364570618
968168444540,0.009199857711791992,-0.0038810735568404198,-0.005236838478595018,0.16490475833415985,-0.006768176332116127,0.9793232083320618
968173417690,0.014526179060339928,-0.004946338012814522,-0.0009757806546986103,0.16719357669353485,0.008246472105383873,0.9776752591133118
968178448160,0.01026512123644352,-0.0038810735568404198,-0.00630210293456912,0.17817990481853485,0.013739636167883873,0.9876545071601868
968183424740,0.0038735349662601948,-0.0038810735568404198,-0.004171574022620916,0.18165890872478485,0.012732556089758873,0.9834430813789368
968188482610,0.0006777415983378887,-0.0006852801889181137,0.0011547482572495937,0.17396847903728485,0.027014782652258873,0.9764850735664368
968193387790,0.0038735349662601948,0.0003799842670559883,-0.0020410451106727123,0.17232052981853485,0.03497987240552902,0.9819782376289368
968198491580,0.0028082705102860928,0.0003799842670559883,-0.005236838478595018,0.17406003177165985,0.025641491636633873,0.9903095364570618
968203387260,-0.0035833162255585194,0.0067715710029006,0.00861159898340702,0.16746823489665985,0.026831677183508873,0.9794147610664368
968208492540,-0.0003875228576362133,0.0035757776349782944,-0.0009757806546986103,0.16188351809978485,0.021246960386633873,0.9806049466133118
968213387230,-0.0035833162255585194,0.004641042090952396,8.948380127549171e-05,0.16289059817790985,0.015570690855383873,0.9899433255195618
968218458800,-0.008909638971090317,0.0025105131790041924,-0.0009757806546986103,0.16014401614665985,0.013190319761633873,0.9903095364570618
968223441710,-0.00784437358379364,0.0035757776349782944,0.0043505416251719,0.15071408450603485,0.010169079527258873,0.9813373684883118
968228444340,-0.006779109593480825,0.0035757776349782944,8.948380127549171e-05,0.14393918216228485,-0.003655383363366127,0.9869220852851868
968233424310,-0.0025180517695844173,0.0035757776349782944,0.0043505416251719,0.14888302981853485,-0.015465686097741127,0.9904926419258118
968238472740,-0.005713845137506723,0.0014452487230300903,0.0022200127132236958,0.14586178958415985,-0.011528918519616127,0.9871051907539368
968243427740,-0.0003875228576362133,-0.0028158091008663177,-0.0020410451106727123,0.13991086184978485,-0.009880969300866127,0.9866474270820618
968248472650,0.0006777415983378887,-0.0017505446448922157,-0.0020410451106727123,0.15227048099040985,-0.022973010316491127,0.9883869290351868
968253419560,0.0017430060543119907,-0.007076866924762726,0.0022200127132236958,0.15703122317790985,-0.020867297425866127,0.9808796048164368
968258441140,0.01026512123644352,-0.0017505446448922157,-0.004171574022620916,0.15199582278728485,-0.006676623597741127,0.9823444485664368
968263441490,0.01026512123644352,-0.006011602468788624,-0.007367367390543222,0.16105954349040985,-0.009697863832116127,0.9948871731758118
968268505000,0.008134592324495316,-0.004946338012814522,-0.00630210293456912,0.16426388919353485,-0.006035754457116127,0.9814289212226868
968273392270,0.008134592324495316,-0.0038810735568404198,-0.0009757806546986103,0.16398923099040985,0.006415417417883873,0.9775837063789368
968278490940,0.008134592324495316,-0.0006852801889181137,-0.004171574022620916,0.16929928958415985,0.014288952574133873,0.9894855618476868
968283387140,0.009199857711791992,-0.0017505446448922157,-0.0031063095666468143,0.17415158450603485,0.010718395933508873,0.9858234524726868
968288492030,0.01026512123644352,0.0025105131790041924,0.0011547482572495937,0.16774289309978485,0.020789196714758873,0.9771259427070618
968293429810,0.004938799422234297,0.0067715710029006,-0.0031063095666468143,0.17186276614665985,0.028845837339758873,0.9804218411445618
968298454540,0.01026512123644352,0.0014452487230300903,-0.004171574022620916,0.17030636966228485,0.014380505308508873,0.9871051907539368
968303428640,-0.0035833162255585194,0.0014452487230300903,-0.0009757806546986103,0.16463010013103485,0.017401745542883873,0.9828937649726868
968308454750,0.0017430060543119907,-0.0006852801889181137,0.0032852771691977978,0.16032712161540985,0.023993542417883873,0.9810627102851868
968313426220,-0.0025180517695844173,0.0035757776349782944,-0.0009757806546986103,0.16215817630290985,0.010077526792883873,0.9894855618476868
968318457890,-0.009974902495741844,-0.0017505446448922157,-0.004171574022620916,0.15639035403728485,0.003668835386633873,0.9921405911445618
968323425870,-0.009974902495741844,0.0025105131790041924,0.00861159898340702,0.14705197513103485,0.008246472105383873,0.9804218411445618
968328483900,-0.012105431407690048,-0.0017505446448922157,-0.00630210293456912,0.14805905520915985,-0.003563830628991127,0.9803302884101868
968333381470,0.004938799422234297,-0.0028158091008663177,0.0043505416251719,0.15291135013103485,-0.013543078675866127,0.9881122708320618
968338496960,0.0038735349662601948,0.0014452487230300903,0.0011547482572495937,0.15327756106853485,-0.005944201722741127,0.9816120266914368
968343385370,-0.005713845137506723,-0.0017505446448922157,0.0011547482572495937,0.14577023684978485,-0.006218859925866127,0.9802387356758118
968348497100,-0.004648580681532621,-0.0038810735568404198,-0.0031063095666468143,0.15501706302165985,-0.021416613832116127,0.9903095364570618
968353385570,0.006004063878208399,-0.006011602468788624,-0.0009757806546986103,0.15886227786540985,-0.017571398988366127,0.9833515286445618
968358495740,0.008134592324495316,-0.004946338012814522,-0.0009757806546986103,0.15529172122478485,-0.000725695863366127,0.9789569973945618
968363391030,0.009199857711791992,0.0003799842670559883,-0.005236838478595018,0.16426388919353485,-0.003472277894616127,0.9870136380195618
968368537170,0.0028082705102860928,-0.004946338012814522,0.0032852771691977978,0.16719357669353485,-0.004204699769616127,0.9860065579414368
968373400810,0.004938799422234297,0.0003799842670559883,-0.0009757806546986103,0.16279904544353485,0.011633923277258873,0.9757526516914368
968378445350,0.007069328334182501,-0.0017505446448922157,-0.0020410451106727123,0.16655270755290985,0.011359265074133873,0.9839008450508118
968383436070,0.011330386623740196,-0.0006852801889181137,-0.0031063095666468143,0.17424313724040985,0.006506970152258873,0.9888446927070618
968388442550,0.0017430060543119907,0.0035757776349782944,8.948380127549171e-05,0.17003171145915985,0.021155407652258873,0.9789569973945618
968393437060,0.0017430060543119907,0.004641042090952396,-0.0020410451106727123,0.16453854739665985,0.025549938902258873,0.9784992337226868
968398444680,-0.0014527873136103153,0.0014452487230300903,-0.005236838478595018,0.16939084231853485,0.010626843199133873,0.9917743802070618
968403422980,0.0038735349662601948,0.0025105131790041924,-0.0020410451106727123,0.16353146731853485,0.010352184996008873,0.9880207180976868
968408485520,0.0017430060543119907,0.0014452487230300903,0.0011547482572495937,0.15739743411540985,0.017401745542883873,0.9796894192695618
968413394720,-0.008909638971090317,-0.0028158091008663177,0.0032852771691977978,0.15776364505290985,0.009619763121008873,0.9849079251289368
968418492290,-0.005713845137506723,0.0003799842670559883,0.0022200127132236958,0.15336911380290985,0.004584362730383873,0.9877460598945618
968423390050,0.0006777415983378887,0.007836836390197277,0.005415806081146002,0.15309445559978485,0.005133679136633873,0.9838092923164368
968428495130,-0.004648580681532621,-0.0038810735568404198,8.948380127549171e-05,0.14934079349040985,-0.004021594300866127,0.9833515286445618
968433381880,-0.0014527873136103153,-0.0006852801889181137,8.948380127549171e-05,0.15153805911540985,-0.011620471253991127,0.9898517727851868
968438511480,-0.00784437358379364,0.0003799842670559883,0.0043505416251719,0.15831296145915985,-0.007317492738366127,0.9859150052070618
968443427720,-0.0003875228576362133,-0.0028158091008663177,8.948380127549171e-05,0.15181271731853485,-0.004296252503991127,0.9827106595039368
968448447840,-0.0003875228576362133,-0.004946338012814522,-0.0009757806546986103,0.15391843020915985,-0.012810656800866127,0.9865558743476868
968453424700,0.0028082705102860928,0.0035757776349782944,-0.0009757806546986103,0.15996091067790985,-0.014092395082116127,0.9815204739570618
968458449430,0.008134592324495316,-0.0006852801889181137,-0.0020410451106727123,0.15849606692790985,-0.000634143128991127,0.9769428372383118
968463419860,0.004938799422234297,-0.0017505446448922157,-0.0009757806546986103,0.16298215091228485,0.004401257261633873,0.9904010891914368
968468457750,0.009199857711791992,-0.007076866924762726,-0.0031063095666468143,0.17058102786540985,-0.002922961488366127,0.9895771145820618
968473423130,0.006004063878208399,0.0003799842670559883,0.005415806081146002,0.16554562747478485,0.004584362730383873,0.9783161282539368
968478451080,0.006004063878208399,-0.0038810735568404198,-0.004171574022620916,0.16298215091228485,0.012641003355383873,0.9812458157539368
968483404440,0.011330386623740196,0.0014452487230300903,-0.0009757806546986103,0.17113034427165985,0.006049206480383873,0.9898517727851868
968488506820,0.0038735349662601948,0.0014452487230300903,-0.0020410451106727123,0.16865842044353485,0.013190319761633873,0.9846332669258118
968493386880,0.0028082705102860928,0.0025105131790041924,-0.004171574022620916,0.15977780520915985,0.020239880308508873,0.9783161282539368
968498490930,-0.0025180517695844173,0.0003799842670559883,-0.004171574022620916,0.16463010013103485,0.012824108824133873,0.9882038235664368
968503388380,0.0038735349662601948,0.0003799842670559883,0.0022200127132236958,0.16316525638103485,0.008063366636633873,0.9922321438789368
968508491860,-0.005713845137506723,0.0014452487230300903,8.948380127549171e-05,0.15693967044353485,0.013922741636633873,0.9842670559883118
968513396290,0.0017430060543119907,-0.0006852801889181137,0.0022200127132236958,0.15886227786540985,0.009253552183508873,0.9840839505195618
968518500960,-0.0035833162255585194,-0.0006852801889181137,0.0022200127132236958,0.15904538333415985,0.002112438902258873,0.9877460598945618
968523380900,-0.0035833162255585194,-0.0006852801889181137,8.948380127549171e-05,0.15465085208415985,0.003211071714758873,0.9840839505195618
968528496760,-0.0003875228576362133,-0.0006852801889181137,8.948380127549171e-05,0.15007321536540985,0.002387097105383873,0.9786823391914368
968533377340,-0.0003875228576362133,-0.0028158091008663177,-0.0009757806546986103,0.15098874270915985,-0.006218859925866127,0.9854572415351868
968538458330,-0.0025180517695844173,-0.0006852801889181137,8.948380127549171e-05,0.15455929934978485,-0.007683703675866127,0.9881122708320618
968543431830,0.007069328334182501,0.0014452487230300903,0.0022200127132236958,0.15043942630290985,-0.005944201722741127,0.9827106595039368
968548448770,0.0006777415983378887,-0.0028158091008663177,-0.007367367390543222,0.15263669192790985,-0.006401965394616127,0.9874714016914368
968553421510,0.007069328334182501,-0.0006852801889181137,-0.0009757806546986103,0.16325680911540985,-0.010796496644616127,0.9869220852851868
968558447010,0.007069328334182501,-0.0017505446448922157,-0.0009757806546986103,0.16005246341228485,-0.004479357972741127,0.9766681790351868
968563421790,0.004938799422234297,-0.0017505446448922157,-0.0031063095666468143,0.16069333255290985,0.006232311949133873,0.9851825833320618
968568453800,0.008134592324495316,-0.0006852801889181137,-0.004171574022620916,0.17378537356853485,0.000464489683508873,0.9892109036445618
968573422210,0.004938799422234297,-0.0038810735568404198,8.948380127549171e-05,0.16728512942790985,-0.000451037660241127,0.9780414700508118
968578490920,0.01026512123644352,0.0014452487230300903,-0.0020410451106727123,0.15812985599040985,0.012824108824133873,0.9785907864570618
968582499400,0.004938799422234297,0.0014452487230300903,-0.005236838478595018,0.17039792239665985,0.008063366636633873,0.9888446927070618
968587390400,0.004938799422234297,0.0014452487230300903,-0.005236838478595018,0.16984860599040985,0.008704235777258873,0.9888446927070618
968588507590,0.0038735349662601948,-0.004946338012814522,0.0011547482572495937,0.16984860599040985,0.008704235777258873,0.9888446927070618
968592490760,0.0017430060543119907,0.0003799842670559883,-0.0009757806546986103,0.16206662356853485,0.011633923277258873,0.9772174954414368
968597374420,0.0017430060543119907,0.0003799842670559883,-0.0009757806546986103,0.16160885989665985,0.012183239683508873,0.9818866848945618
968598498430,0.0038735349662601948,0.0003799842670559883,-0.0020410451106727123,0.16160885989665985,0.012183239683508873,0.9818866848945618
968602513220,0.0038735349662601948,0.0003799842670559883,-0.0031063095666468143,0.16490475833415985,0.005225231871008873,0.9907673001289368
968607346240,0.0038735349662601948,0.0003799842670559883,-0.0031063095666468143,0.15675656497478485,0.011450817808508873,0.9832599759101868
968608514620,0.0006777415983378887,0.0014452487230300903,0.0022200127132236958,0.15675656497478485,0.011450817808508873,0.9832599759101868
968612504540,-0.0035833162255585194,0.004641042090952396,-0.0009757806546986103,0.15364377200603485,0.013922741636633873,0.9810627102851868
968617408600,-0.0035833162255585194,0.004641042090952396,-0.0009757806546986103,0.15648190677165985,0.000647595152258873,0.9865558743476868
968618458380,0.004938799422234297,-0.0006852801889181137,-0.0009757806546986103,0.15648190677165985,0.000647595152258873,0.9865558743476868
968623422190,0.03157041221857071,-0.008142131380736828,0.011807393282651901,0.15730588138103485,-0.020226428285241127,0.9502094388008118
968628450760,-0.0035833162255585194,-0.010272660292685032,-0.010563161224126816,0.19008176028728485,0.24161438643932343,1.0363606214523315
968632449460,-0.030214926227927208,0.018489480018615723,-0.019085276871919632,0.21791379153728485,0.06720643490552902,0.9622943997383118
968637382500,-0.030214926227927208,0.018489480018615723,-0.019085276871919632,0.18870846927165985,0.09238343685865402,1.0223530530929565
968638474610,-0.04725916311144829,0.011032628826797009,0.02352530136704445,0.18870846927165985,0.09238343685865402,1.0223530530929565
968642483070,-0.023823341354727745,0.015293686650693417,0.05228744447231293,0.19374386966228485,0.001105358824133873,0.9547870755195618
968647378500,-0.023823341354727745,0.015293686650693417,0.05228744447231293,0.09541623294353485,-0.006768176332116127,0.9733722805976868
968648501250,-0.03660651668906212,0.008902099914848804,-0.01269369013607502,0.09541623294353485,-0.006768176332116127,0.9733722805976868
968652491600,-0.027019133791327477,0.0035757776349782944,-0.022281071171164513,0.16307370364665985,0.004218151792883873,0.9971759915351868
968657377750,-0.027019133791327477,0.0035757776349782944,-0.022281071171164513,0.19072262942790985,-0.04293150454759598,0.9842670559883118
968658519810,-0.02595387026667595,0.011032628826797009,0.024590566754341125,0.19072262942790985,-0.04293150454759598,0.9842670559883118
968662491410,-0.023823341354727745,0.008902099914848804,0.009676864370703697,0.08433835208415985,-0.024987170472741127,0.9993732571601868
968667377200,-0.023823341354727745,0.008902099914848804,0.009676864370703697,0.12617795169353485,-0.06700987368822098,0.9841755032539368
968668499350,-0.037671782076358795,0.021685272455215454,-0.00949789583683014,0.12617795169353485,-0.06700987368822098,0.9841755032539368
968672487160,-0.01104016788303852,-0.021990569308400154,-0.004171574022620916,0.05375973507761955,-0.11846251040697098,0.9914997220039368
968677378350,-0.01104016788303852,-0.021990569308400154,-0.004171574022620916,0.13817135989665985,-0.09768003970384598,0.9768512845039368
968678499140,-0.008909638971090317,-0.011337924748659134,-0.0020410451106727123,0.13817135989665985,-0.09768003970384598,0.9768512845039368
968682499050,0.007069328334182501,-0.012403189204633236,-0.00630210293456912,0.10841672122478485,-0.09191221743822098,0.9990070462226868
968687387640,0.007069328334182501,-0.012403189204633236,-0.00630210293456912,0.13716427981853485,-0.08751768618822098,0.9885700345039368
968688511540,0.012395650148391724,-0.020925305783748627,-0.0031063095666468143,0.13716427981853485,-0.08751768618822098,0.9885700345039368
968692491160,0.018787238746881485,-0.013468453660607338,0.0022200127132236958,0.14485470950603485,-0.08879942446947098,0.9774006009101868
968697412830,0.02837461791932583,-0.029447421431541443,-0.014824219048023224,0.13414303958415985,-0.06563658267259598,0.9765766263008118
968702465850,0.029439883306622505,-0.01666424795985222,-0.007367367390543222,0.20527951419353485,-0.05959410220384598,0.9791401028633118
968707421470,0.03902726247906685,-0.015598982572555542,-0.007367367390543222,0.19118039309978485,-0.05657286196947098,0.9901264309883118
968712441200,0.04328832030296326,-0.004946338012814522,-0.00949789583683014,0.21214596927165985,-0.017662951722741127,0.9709919095039368
968717411330,0.04648411273956299,-0.0017505446448922157,-0.00949789583683014,0.19456784427165985,-0.005120227113366127,0.9709919095039368
968722440180,0.04222305491566658,-0.010272660292685032,-0.011628424748778343,0.19951169192790985,0.004767468199133873,0.9769428372383118
968727391980,0.04541884735226631,0.005706306546926498,-0.00949789583683014,0.22029416263103485,0.03800111263990402,0.9761188626289368
968732485270,0.044353585690259933,0.0014452487230300903,-0.010563161224126816,0.18156735599040985,0.06510072201490402,0.9762104153633118
968737383400,0.029439883306622505,0.020620010793209076,-0.005236838478595018,0.21754758059978485,0.10062318295240402,0.9875629544258118
968742490170,0.019852502271533012,0.008902099914848804,-0.00630210293456912,0.16627804934978485,0.12222962826490402,0.9945209622383118
968747377500,0.0038735349662601948,0.01422842312604189,-0.0009757806546986103,0.16316525638103485,0.13944153487682343,0.9804218411445618
968752487580,-0.0035833162255585194,0.017424214631319046,0.0022200127132236958,0.14769284427165985,0.12113099545240402,0.9955280423164368
968757381950,-0.015301225706934929,0.007836836390197277,0.00861159898340702,0.14238278567790985,0.10748963803052902,0.9944294095039368
968762495000,-0.02595387026667595,0.0067715710029006,0.005415806081146002,0.13853757083415985,0.10346131771802902,0.9865558743476868
968767375840,-0.03554125130176544,-0.0006852801889181137,0.0043505416251719,0.12050168216228485,0.05969911068677902,0.9945209622383118
968772486950,-0.03873704746365547,0.0035757776349782944,0.010742127895355225,0.14540402591228485,0.027380993589758873,0.9989154934883118
968777410740,-0.03234545886516571,-0.0017505446448922157,0.012872656807303429,0.12718503177165985,-0.001183459535241127,0.9876545071601868
968782436280,-0.03341072425246239,-0.0028158091008663177,0.009676864370703697,0.13643185794353485,-0.03872007876634598,0.9822528958320618
968787391040,-0.02275807596743107,-0.0038810735568404198,0.006481070537120104,0.14329831302165985,-0.07149595767259598,0.9898517727851868
968792443680,-0.017431754618883133,-0.008142131380736828,0.0032852771691977978,0.13826291263103485,-0.08129210025072098,0.9880207180976868
968797416710,-0.006779109593480825,-0.010272660292685032,0.0011547482572495937,0.14879147708415985,-0.08998961001634598,0.9727314114570618
968802450280,-0.0025180517695844173,-0.010272660292685032,-0.005236838478595018,0.14888302981853485,-0.10418028384447098,0.9833515286445618
968807393710,0.008134592324495316,-0.007076866924762726,0.006481070537120104,0.17433468997478485,-0.08504576236009598,0.9880207180976868
968812494380,0.015591444447636604,-0.007076866924762726,-0.004171574022620916,0.16362302005290985,-0.06783384829759598,0.9766681790351868
968817377210,0.0273093543946743,-0.00920739583671093,-0.01269369013607502,0.17048947513103485,-0.06115049868822098,0.9731891751289368
968822488590,0.029439883306622505,-0.004946338012814522,-0.008432632312178612,0.17598263919353485,-0.03295225650072098,0.9845417141914368
968827371940,0.030505146831274033,0.0003799842670559883,-0.0009757806546986103,0.17570798099040985,-0.002190539613366127,0.9847248196601868
968832510360,0.025178825482726097,0.004641042090952396,-0.010563161224126816,0.18065182864665985,0.026557018980383873,0.9784992337226868
968837373550,0.0273093543946743,0.0035757776349782944,-0.007367367390543222,0.17863766849040985,0.03836732357740402,0.9854572415351868
968842487400,0.01665670797228813,0.0003799842670559883,-0.0020410451106727123,0.18294064700603485,0.06043153256177902,0.9839008450508118
968847383620,0.014526179060339928,0.0035757776349782944,-0.004171574022620916,0.16105954349040985,0.07544618099927902,0.9801471829414368
968852459830,0.004938799422234297,-0.0017505446448922157,-0.0031063095666468143,0.16545407474040985,0.07681947201490402,0.9872882962226868
968857415630,-0.0025180517695844173,0.005706306546926498,0.0032852771691977978,0.17122189700603485,0.07947450131177902,0.9920490384101868
968862454700,-0.016366489231586456,0.0035757776349782944,-0.0020410451106727123,0.15895383059978485,0.07324891537427902,0.9793232083320618
968867412950,-0.017431754618883133,-0.0006852801889181137,8.948380127549171e-05,0.15602414309978485,0.05713563412427902,0.9881122708320618
968872441920,-0.017431754618883133,0.0014452487230300903,0.007546334993094206,0.15895383059978485,0.03259950131177902,0.9937885403633118
968877398600,-0.020627547055482864,0.0025105131790041924,0.010742127895355225,0.14668576419353485,0.019049694761633873,0.9777668118476868
968882494770,-0.02169281244277954,-0.0006852801889181137,0.0011547482572495937,0.14265744388103485,0.001563122496008873,0.9791401028633118
968887375910,-0.014235960319638252,0.0014452487230300903,0.0011547482572495937,0.15831296145915985,-0.024254748597741127,0.9950702786445618
968892493210,-0.015301225706934929,0.004641042090952396,0.007546334993094206,0.15941159427165985,-0.03130430728197098,0.9873798489570618
968897379470,-0.012105431407690048,-0.0017505446448922157,-0.0020410451106727123,0.14421384036540985,-0.04293150454759598,0.9742878079414368
968902505350,-0.0025180517695844173,-0.0028158091008663177,0.0022200127132236958,0.14796750247478485,-0.05657286196947098,0.9829853177070618
968907376370,0.0017430060543119907,-0.0028158091008663177,8.948380127549171e-05,0.15208737552165985,-0.05492491275072098,0.9914997220039368
968912487810,0.009199857711791992,-0.008142131380736828,-0.004171574022620916,0.14833371341228485,-0.04265684634447098,0.9810627102851868
968917383400,0.014526179060339928,-0.0006852801889181137,-0.00949789583683014,0.15465085208415985,-0.04119200259447098,0.9830768704414368
968922491020,0.01772197335958481,-0.007076866924762726,-0.0031063095666468143,0.16041867434978485,-0.029015490785241127,0.9868305325508118
968927420300,0.015591444447636604,-0.0017505446448922157,0.006481070537120104,0.15922848880290985,-0.012261340394616127,0.9849994778633118
968932450460,0.02091776765882969,-0.00920739583671093,-0.005236838478595018,0.15895383059978485,0.002020886167883873,0.9788654446601868
968937410550,0.01665670797228813,-0.006011602468788624,-0.00630210293456912,0.17122189700603485,0.010626843199133873,0.9846332669258118
968942437510,0.02091776765882969,-0.004946338012814522,-0.0020410451106727123,0.16948239505290985,0.03864198178052902,0.9777668118476868
968947389590,0.012395650148391724,0.0014452487230300903,-0.0031063095666468143,0.16948239505290985,0.03864198178052902,0.9777668118476868
968952487480,0.007069328334182501,-0.0028158091008663177,-0.00630210293456912,0.17845456302165985,0.03928285092115402,0.9883869290351868
968957379150,0.007069328334182501,0.0014452487230300903,0.0011547482572495937,0.16829220950603485,0.03836732357740402,0.9760273098945618
968962485180,-0.0003875228576362133,0.0003799842670559883,-0.008432632312178612,0.16664426028728485,0.03552918881177902,0.9829853177070618
968967377470,-0.005713845137506723,0.0067715710029006,0.0022200127132236958,0.17186276614665985,0.029852917417883873,0.9934223294258118
968972484310,-0.009974902495741844,0.011032628826797009,0.005415806081146002,0.16234128177165985,0.018134167417883873,0.9807880520820618
968977391210,-0.016366489231586456,0.0003799842670559883,0.009676864370703697,0.14989010989665985,0.011817028746008873,0.9803302884101868
968982489720,-0.019562283530831337,0.0035757776349782944,0.0032852771691977978,0.15639035403728485,-0.006859729066491127,0.9909504055976868
968987381750,-0.01104016788303852,-0.0038810735568404198,-0.004171574022620916,0.14970700442790985,-0.017571398988366127,0.9908588528633118
968992489980,-0.00784437358379364,0.0003799842670559883,0.006481070537120104,0.13817135989665985,-0.011803576722741127,0.9793232083320618
968997373640,-0.0025180517695844173,-0.006011602468788624,0.0022200127132236958,0.14769284427165985,-0.021233508363366127,0.9867389798164368
969002443380,-0.0035833162255585194,-0.0006852801889181137,8.948380127549171e-05,0.14677731692790985,-0.029747912660241127,0.9931476712226868
969007415890,0.0006777415983378887,-0.007076866924762726,0.0032852771691977978,0.14155881106853485,-0.021874377503991127,0.9810627102851868
969012444310,0.01026512123644352,0.0003799842670559883,-0.0020410451106727123,0.14293210208415985,-0.019402453675866127,0.9814289212226868
969017411580,0.004938799422234297,-0.004946338012814522,-0.0009757806546986103,0.15446774661540985,-0.023064563050866127,0.9916828274726868
969022458200,0.008134592324495316,-0.0017505446448922157,-0.0020410451106727123,0.15840451419353485,-0.016198107972741127,0.9856403470039368
969027407880,0.006004063878208399,-0.004946338012814522,0.0032852771691977978,0.16179196536540985,-0.001549670472741127,0.9814289212226868
969032440600,0.01665670797228813,-0.008142131380736828,-0.004171574022620916,0.16582028567790985,0.003577282652258873,0.9854572415351868
969037415950,0.007069328334182501,-0.00920739583671093,-0.007367367390543222,0.17131344974040985,0.008063366636633873,0.9808796048164368
969042447020,0.015591444447636604,-0.0028158091008663177,-0.0009757806546986103,0.17625729739665985,0.019782116636633873,0.9747455716133118
969047393520,0.01026512123644352,0.007836836390197277,8.948380127549171e-05,0.17442624270915985,0.024085095152258873,0.9849994778633118
969052503230,0.0038735349662601948,0.0035757776349782944,-0.007367367390543222,0.18037717044353485,0.021979382261633873,0.9927814602851868
969057377010,0.009199857711791992,0.0014452487230300903,-0.005236838478595018,0.17671506106853485,0.022986462339758873,0.9769428372383118
969062486780,-0.0014527873136103153,0.0014452487230300903,-0.0020410451106727123,0.16755978763103485,0.029852917417883873,0.9781330227851868
969067372640,0.0006777415983378887,0.007836836390197277,0.0022200127132236958,0.17021481692790985,0.018500378355383873,0.9933307766914368
969072487680,-0.005713845137506723,0.005706306546926498,0.0011547482572495937,0.16582028567790985,0.012732556089758873,0.9866474270820618
969077383950,-0.004648580681532621,0.0035757776349782944,0.00861159898340702,0.15071408450603485,0.018775036558508873,0.9791401028633118
969082501730,0.0006777415983378887,0.008902099914848804,-0.0031063095666468143,0.15080563724040985,0.003668835386633873,0.9886615872383118
969087378550,-0.008909638971090317,0.004641042090952396,0.0011547482572495937,0.15300290286540985,-0.003655383363366127,0.9913166165351868
969092444060,-0.005713845137506723,0.0003799842670559883,0.00861159898340702,0.14348141849040985,0.000372936949133873,0.9820697903633118
969097430630,-0.008909638971090317,-0.004946338012814522,0.0032852771691977978,0.14357297122478485,-0.006310412660241127,0.9857318997383118
969102443740,-0.009974902495741844,-0.0028158091008663177,0.0022200127132236958,0.14641110599040985,-0.019127795472741127,0.9885700345039368
969107414860,-0.0025180517695844173,0.0003799842670559883,-0.004171574022620916,0.14522092044353485,-0.013909289613366127,0.9819782376289368
969112442540,0.0038735349662601948,-0.004946338012814522,0.0011547482572495937,0.14696042239665985,-0.008507678285241127,0.9817951321601868
969117414760,0.004938799422234297,-0.0028158091008663177,8.948380127549171e-05,0.15574948489665985,-0.019310900941491127,0.9845417141914368
969122499640,0.009199857711791992,-0.0028158091008663177,-0.0020410451106727123,0.16307370364665985,-0.017571398988366127,0.9817951321601868
969127402390,0.0017430060543119907,-0.006011602468788624,0.0011547482572495937,0.16563718020915985,-0.003838488832116127,0.9799640774726868
969132490160,0.004938799422234297,-0.008142131380736828,-0.0031063095666468143,0.16536252200603485,-0.001641223207116127,0.9871967434883118
969137375710,0.008134592324495316,-0.004946338012814522,-0.00630210293456912,0.17415158450603485,-0.005120227113366127,0.9848163723945618
969142480170,0.008134592324495316,0.0025105131790041924,0.0043505416251719,0.17680661380290985,0.005499890074133873,0.9748371243476868
969147377010,0.01026512123644352,-0.0038810735568404198,-0.0031063095666468143,0.17232052981853485,0.018958142027258873,0.9815204739570618
969152505500,0.006004063878208399,0.0025105131790041924,-0.005236838478595018,0.17872922122478485,0.014380505308508873,0.9913166165351868
969157379870,0.006004063878208399,-0.0006852801889181137,-0.0020410451106727123,0.17387692630290985,0.013648083433508873,0.9788654446601868
969162490840,0.0038735349662601948,0.005706306546926498,0.0022200127132236958,0.16508786380290985,0.023352673277258873,0.9783161282539368
969167358690,0.0006777415983378887,0.0014452487230300903,-0.004171574022620916,0.16463010013103485,0.017859509214758873,0.9953449368476868
969172528070,-0.0014527873136103153,0.0003799842670559883,-0.0009757806546986103,0.16279904544353485,0.015387585386633873,0.9893024563789368
969177330510,-0.0035833162255585194,0.005706306546926498,0.005415806081146002,0.14906613528728485,0.019507458433508873,0.9783161282539368
969182522240,-0.0025180517695844173,0.0067715710029006,8.948380127549171e-05,0.14824216067790985,0.010169079527258873,0.9887531399726868
969187346810,-0.0025180517695844173,0.004641042090952396,0.0011547482572495937,0.15190427005290985,-0.000359484925866127,0.9936969876289368
969192449900,-0.0014527873136103153,0.0035757776349782944,0.0032852771691977978,0.14458005130290985,0.003211071714758873,0.9859150052070618
969197394360,-0.0035833162255585194,0.005706306546926498,8.948380127549171e-05,0.14311520755290985,0.001196911558508873,0.9839923977851868
969202445240,-0.008909638971090317,-0.0038810735568404198,-0.0031063095666468143,0.15108029544353485,-0.015923449769616127,0.9869220852851868
969207378730,0.0017430060543119907,0.0025105131790041924,0.0011547482572495937,0.14842526614665985,-0.014000842347741127,0.9845417141914368
969212488960,0.0028082705102860928,-0.0038810735568404198,0.007546334993094206,0.15071408450603485,-0.002831408753991127,0.9820697903633118
969217379960,0.0006777415983378887,0.0014452487230300903,-0.005236838478595018,0.16078488528728485,-0.017296740785241127,0.9866474270820618
969222498370,0.0038735349662601948,-0.0028158091008663177,-0.0031063095666468143,0.16820065677165985,-0.015374133363366127,0.9879291653633118
969227379230,0.0038735349662601948,-0.007076866924762726,8.948380127549171e-05,0.16646115481853485,-0.006768176332116127,0.9782245755195618
969232502810,0.007069328334182501,-0.00920739583671093,-0.0020410451106727123,0.16517941653728485,-0.005394885316491127,0.9803302884101868
969237366840,0.012395650148391724,0.0014452487230300903,-0.0031063095666468143,0.17323605716228485,-0.006401965394616127,0.9849079251289368
969242504630,0.008134592324495316,-0.0006852801889181137,-0.0031063095666468143,0.17323605716228485,0.007422497496008873,0.9740131497383118
969247415610,0.006004063878208399,-0.0006852801889181137,-0.005236838478595018,0.16655270755290985,0.012549450621008873,0.9789569973945618
969252441710,0.0038735349662601948,0.0025105131790041924,-0.0009757806546986103,0.17076413333415985,0.010626843199133873,0.9881122708320618
969257412350,0.006004063878208399,0.0014452487230300903,0.0011547482572495937,0.16966550052165985,0.014655163511633873,0.9788654446601868
969262445430,0.007069328334182501,0.0035757776349782944,-0.0009757806546986103,0.16234128177165985,0.023810436949133873,0.9786823391914368
969267395250,0.0017430060543119907,0.0067715710029006,-0.0009757806546986103,0.16078488528728485,0.020422985777258873,0.9878376126289368
969272461150,0.0028082705102860928,0.004641042090952396,-0.004171574022620916,0.16234128177165985,0.016394665464758873,0.9925068020820618
969277382740,-0.0003875228576362133,0.0003799842670559883,0.0032852771691977978,0.15034787356853485,0.019049694761633873,0.9840839505195618
969282487160,-0.005713845137506723,-0.0006852801889181137,0.0022200127132236958,0.15181271731853485,0.011359265074133873,0.9847248196601868
969287378800,-0.0035833162255585194,0.004641042090952396,-0.0009757806546986103,0.15986935794353485,-0.001091906800866127,0.9911335110664368
969292490330,-0.0014527873136103153,-0.0017505446448922157,0.0032852771691977978,0.15108029544353485,0.004309704527258873,0.9860065579414368
969297374770,0.0006777415983378887,-0.0006852801889181137,0.0022200127132236958,0.14970700442790985,0.005866101011633873,0.9804218411445618
969302494530,-0.0014527873136103153,0.0014452487230300903,-0.0009757806546986103,0.15318600833415985,-0.012902209535241127,0.9864643216133118
969307377970,0.006004063878208399,-0.0006852801889181137,-0.0009757806546986103,0.15529172122478485,-0.011345813050866127,0.9886615872383118
969312488980,-0.0025180517695844173,-0.006011602468788624,0.0022200127132236958,0.15886227786540985,-0.007775256410241127,0.9821613430976868
969317369180,0.0017430060543119907,-0.004946338012814522,8.948380127549171e-05,0.16206662356853485,-0.013909289613366127,0.9834430813789368
969322521420,0.0028082705102860928,-0.0028158091008663177,0.0043505416251719,0.16444699466228485,-0.010796496644616127,0.9842670559883118
969327344020,0.009199857711791992,0.0014452487230300903,0.005415806081146002,0.16417233645915985,-0.004937121644616127,0.9798725247383118
969332534620,-0.0014527873136103153,-0.004946338012814522,-0.0031063095666468143,0.16527096927165985,-0.005394885316491127,0.9829853177070618
969337340900,0.006004063878208399,0.0003799842670559883,-0.0031063095666468143,0.16728512942790985,-0.003472277894616127,0.9865558743476868
969342496150,0.004938799422234297,0.0014452487230300903,8.948380127549171e-05,0.17012326419353485,0.004859020933508873,0.9818866848945618
969347398930,0.006004063878208399,0.0014452487230300903,0.0032852771691977978,0.16298215091228485,0.009894421324133873,0.9751117825508118
969352491290,0.007069328334182501,-0.0017505446448922157,-0.005236838478595018,0.16527096927165985,0.010260632261633873,0.9892109036445618
969357381240,0.0038735349662601948,0.005706306546926498,-0.0020410451106727123,0.16710202395915985,0.009070446714758873,0.9847248196601868
969362492150,0.0028082705102860928,0.0003799842670559883,0.0022200127132236958,0.15730588138103485,0.015936901792883873,0.9776752591133118
969367369840,-0.0003875228576362133,0.004641042090952396,0.0022200127132236958,0.15629880130290985,0.018134167417883873,0.9834430813789368
969372505820,0.0006777415983378887,0.0014452487230300903,-0.004171574022620916,0.16343991458415985,0.011359265074133873,0.9904926419258118
969377378660,-0.0014527873136103153,-0.0006852801889181137,0.0022200127132236958,0.15254513919353485,0.009711315855383873,0.9819782376289368
969382491380,-0.005713845137506723,0.0003799842670559883,-0.0009757806546986103,0.14906613528728485,0.011817028746008873,0.9839008450508118
969387407980,0.0028082705102860928,-0.0006852801889181137,-0.00630210293456912,0.15977780520915985,0.000372936949133873,0.9914081692695618
969392441820,-0.0025180517695844173,-0.0017505446448922157,0.006481070537120104,0.15657345950603485,0.001563122496008873,0.9864643216133118
969397414450,-0.0035833162255585194,-0.0017505446448922157,-0.0009757806546986103,0.15108029544353485,0.003851940855383873,0.9783161282539368
969402444140,0.0006777415983378887,-0.007076866924762726,-0.0031063095666468143,0.15822140872478485,-0.009240100160241127,0.9831684231758118
969407340490,-0.0014527873136103153,-0.004946338012814522,0.0032852771691977978,0.15895383059978485,-0.012535998597741127,0.9842670559883118
969412523500,-0.0035833162255585194,-0.0006852801889181137,0.0032852771691977978,0.15776364505290985,-0.001824328675866127,0.9816120266914368
969417374620,-0.0014527873136103153,-0.0028158091008663177,-0.0020410451106727123,0.16041867434978485,-0.001183459535241127,0.9868305325508118
969422486140,-0.0035833162255585194,-0.0028158091008663177,0.0011547482572495937,0.16444699466228485,-0.006035754457116127,0.9864643216133118
969427378400,0.007069328334182501,-0.004946338012814522,-0.0009757806546986103,0.16810910403728485,-0.008324572816491127,0.9806964993476868
969432484060,0.004938799422234297,-0.004946338012814522,0.0011547482572495937,0.16279904544353485,0.002020886167883873,0.9806049466133118
969437378860,0.0028082705102860928,0.0014452487230300903,-0.005236838478595018,0.16041867434978485,0.001837780699133873,0.9869220852851868
969442504760,0.0006777415983378887,-0.0028158091008663177,8.948380127549171e-05,0.16865842044353485,0.003577282652258873,0.9849994778633118
969447374690,0.009199857711791992,0.0003799842670559883,-0.004171574022620916,0.16472165286540985,0.007514050230383873,0.9757526516914368
969452491260,0.0017430060543119907,-0.0017505446448922157,0.0022200127132236958,0.16078488528728485,0.010718395933508873,0.9870136380195618
969457384330,-0.0003875228576362133,0.0035757776349782944,-0.0031063095666468143,0.16920773684978485,0.007239392027258873,0.9933307766914368
969462471810,0.0017430060543119907,0.005706306546926498,0.005415806081146002,0.16014401614665985,0.010169079527258873,0.9796894192695618
969467418150,-0.004648580681532621,0.004641042090952396,-0.0031063095666468143,0.15666501224040985,0.014563610777258873,0.9817951321601868
969472448840,-0.0014527873136103153,-0.0028158091008663177,8.948380127549171e-05,0.16279904544353485,0.005225231871008873,0.9922321438789368
969477420100,0.0038735349662601948,-0.0017505446448922157,8.948380127549171e-05,0.15812985599040985,0.000922253355383873,0.9833515286445618
969482446110,0.0006777415983378887,0.0014452487230300903,0.0032852771691977978,0.15172116458415985,0.011542370542883873,0.9778583645820618
969487393550,-0.0014527873136103153,0.0025105131790041924,-0.0020410451106727123,0.15785519778728485,0.003851940855383873,0.9906757473945618
969492490110,-0.0025180517695844173,0.0014452487230300903,0.0022200127132236958,0.15803830325603485,-0.004204699769616127,0.9871967434883118
969497378580,-0.006779109593480825,-0.0017505446448922157,-0.0020410451106727123,0.14970700442790985,0.004401257261633873,0.9801471829414368
969502486860,-0.0025180517695844173,-0.0038810735568404198,-0.0020410451106727123,0.15593259036540985,0.000556042417883873,0.9841755032539368
969507381120,-0.0003875228576362133,-0.0006852801889181137,0.0022200127132236958,0.16151730716228485,-0.009331652894616127,0.9850910305976868
969512486590,0.0028082705102860928,0.0003799842670559883,0.006481070537120104,0.16151730716228485,-0.004387805238366127,0.9841755032539368
969517391820,0.0028082705102860928,-0.0017505446448922157,-0.0031063095666468143,0.16325680911540985,0.002936413511633873,0.9843586087226868
969522488810,0.0017430060543119907,-0.0038810735568404198,-0.0009757806546986103,0.16389767825603485,-0.005486438050866127,0.9861896634101868
969527384020,0.0017430060543119907,-0.0028158091008663177,8.948380127549171e-05,0.16023556888103485,-0.004845568910241127,0.9798725247383118
969532499240,0.0038735349662601948,-0.0038810735568404198,-0.0009757806546986103,0.16408078372478485,0.007422497496008873,0.9792316555976868
969537384040,0.0028082705102860928,0.0025105131790041924,-0.007367367390543222,0.16609494388103485,0.002570202574133873,0.9904010891914368
969542459420,0.0038735349662601948,-0.0006852801889181137,-0.0020410451106727123,0.16655270755290985,0.003485729917883873,0.9837177395820618
969547427370,0.004938799422234297,-0.0017505446448922157,-0.0020410451106727123,0.16408078372478485,0.010169079527258873,0.9778583645820618
969552446970,-0.0025180517695844173,0.0025105131790041924,8.948380127549171e-05,0.15996091067790985,0.010809948667883873,0.9859150052070618
969557419720,0.0038735349662601948,0.0003799842670559883,-0.0020410451106727123,0.16179196536540985,0.006049206480383873,0.9891193509101868
969562446190,0.0017430060543119907,-0.0017505446448922157,0.0043505416251719,0.16224972903728485,0.007330944761633873,0.9767597317695618
969567415530,0.0038735349662601948,0.0014452487230300903,-0.004171574022620916,0.15574948489665985,0.015204479917883873,0.9774921536445618
969572453940,0.0006777415983378887,0.0035757776349782944,8.948380127549171e-05,0.15867917239665985,0.006506970152258873,0.9904010891914368
969577411070,0.0006777415983378887,0.0014452487230300903,8.948380127549171e-05,0.16270749270915985,0.003027966246008873,0.9850910305976868
969582447950,0.004938799422234297,0.0003799842670559883,0.006481070537120104,0.15318600833415985,0.009070446714758873,0.9801471829414368
969587379790,-0.0035833162255585194,-0.0006852801889181137,-0.00630210293456912,0.15886227786540985,0.005042126402258873,0.9867389798164368
969592506240,-0.0003875228576362133,-0.0006852801889181137,8.948380127549171e-05,0.16142575442790985,-0.003106066957116127,0.9851825833320618
969597378670,0.0017430060543119907,0.0014452487230300903,0.0032852771691977978,0.15382687747478485,0.003577282652258873,0.9821613430976868
969602486730,-0.0014527873136103153,0.0025105131790041924,0.0011547482572495937,0.15117184817790985,0.002203991636633873,0.9827106595039368
969607386690,-0.0003875228576362133,-0.0017505446448922157,0.0022200127132236958,0.16133420169353485,-0.007775256410241127,0.9851825833320618
969612491230,0.0038735349662601948,-0.0038810735568404198,0.0011547482572495937,0.15913693606853485,-0.004387805238366127,0.9835346341133118
969617359750,0.0038735349662601948,-0.0006852801889181137,-0.0009757806546986103,0.16060177981853485,0.007147839292883873,0.9853656888008118
969622505890,0.0038735349662601948,0.0003799842670559883,-0.004171574022620916,0.15996091067790985,-0.002190539613366127,0.9882953763008118
969627407170,0.0006777415983378887,0.0025105131790041924,0.0043505416251719,0.16472165286540985,-0.006859729066491127,0.9846332669258118
969632448010,0.0028082705102860928,-0.0017505446448922157,-0.0009757806546986103,0.16398923099040985,0.005774548277258873,0.9774921536445618
969637390630,0.0006777415983378887,-0.0038810735568404198,-0.007367367390543222,0.15932004153728485,0.006873181089758873,0.9860065579414368
969642465240,0.0038735349662601948,0.0014452487230300903,8.948380127549171e-05,0.16499631106853485,0.003302624449133873,0.9875629544258118
969647375450,0.004938799422234297,0.005706306546926498,0.0043505416251719,0.16728512942790985,0.007697155699133873,0.9751117825508118
969652488870,-0.0003875228576362133,0.0014452487230300903,8.948380127549171e-05,0.15950314700603485,0.011817028746008873,0.9842670559883118
969657382640,-0.0025180517695844173,-0.004946338012814522,-0.008432632312178612,0.16435544192790985,0.002203991636633873,0.9924152493476868
969662511470,0.0017430060543119907,-0.0006852801889181137,-0.0009757806546986103,0.16490475833415985,0.007971813902258873,0.9834430813789368
969667389340,-0.0025180517695844173,0.0003799842670559883,-0.0009757806546986103,0.15693967044353485,0.015112927183508873,0.9804218411445618
969672489940,-0.004648580681532621,0.0003799842670559883,8.948380127549171e-05,0.15748898684978485,0.004309704527258873,0.9892109036445618
969677386670,-0.0025180517695844173,-0.0006852801889181137,0.0011547482572495937,0.16343991458415985,-0.002556750550866127,0.9858234524726868
969682486800,-0.0003875228576362133,-0.0038810735568404198,0.0032852771691977978,0.15327756106853485,0.009894421324133873,0.9806964993476868
969686519910,-0.0003875228576362133,-0.0038810735568404198,-0.005236838478595018,0.15263669192790985,0.007422497496008873,0.9853656888008118
969691395380,-0.0003875228576362133,-0.0038810735568404198,-0.005236838478595018,0.16527096927165985,-0.005944201722741127,0.9893940091133118
969692512790,-0.0014527873136103153,-0.0006852801889181137,0.0022200127132236958,0.16527096927165985,-0.005944201722741127,0.9893940091133118
969696513820,-0.005713845137506723,-0.0006852801889181137,0.005415806081146002,0.15739743411540985,9.827874600887299e-05,0.9833515286445618
969701390490,-0.005713845137506723,-0.0006852801889181137,0.005415806081146002,0.15272824466228485,0.000830700621008873,0.9845417141914368
969702493870,-0.0025180517695844173,-0.0006852801889181137,-0.0020410451106727123,0.15272824466228485,0.000830700621008873,0.9845417141914368
969707413370,-0.0003875228576362133,-0.0028158091008663177,-0.004171574022620916,0.16115109622478485,-0.003380725160241127,0.9858234524726868
969712466820,0.0006777415983378887,-0.0017505446448922157,0.0011547482572495937,0.16115109622478485,0.00018983148038387299,0.9819782376289368
969717409130,0.0028082705102860928,-0.0006852801889181137,0.0011547482572495937,0.15968625247478485,0.012000134214758873,0.9817951321601868
969722446090,-0.0035833162255585194,-0.0006852801889181137,-0.0020410451106727123,0.16417233645915985,-0.003563830628991127,0.9888446927070618
969727415460,0.0006777415983378887,0.0003799842670559883,8.948380127549171e-05,0.16380612552165985,-0.006676623597741127,0.9884784817695618
969732447840,0.004938799422234297,-0.0038810735568404198,-0.0031063095666468143,0.16261593997478485,0.002661755308508873,0.9775837063789368
969736502650,0.050745170563459396,-0.007076866924762726,0.010742127895355225,0.16554562747478485,-0.023247668519616127,0.9373920559883118
969741399260,0.050745170563459396,-0.007076866924762726,0.010742127895355225,0.17232052981853485,0.24857239425182343,1.0514668226242065
969742489180,-0.017431754618883133,0.0014452487230300903,-0.022281071171164513,0.17232052981853485,0.24857239425182343,1.0514668226242065
969746519490,-0.02169281244277954,0.007836836390197277,0.0022200127132236958,0.22880856692790985,0.05109315365552902,0.9595478177070618
969751382730,-0.02169281244277954,0.007836836390197277,0.0022200127132236958,0.17369382083415985,0.09989076107740402,1.0075215101242065
969752504320,-0.048324424773454666,0.008902099914848804,0.017133714631199837,0.17369382083415985,0.09989076107740402,1.0075215101242065
969756519910,-0.027019133791327477,0.0067715710029006,0.03630847483873367,0.18641965091228485,-0.010796496644616127,0.9584491848945618
969761397830,-0.027019133791327477,0.0067715710029006,0.03630847483873367,0.11537472903728485,-0.011162707582116127,0.9841755032539368
969762501850,-0.020627547055482864,0.008902099914848804,-0.00949789583683014,0.11537472903728485,-0.011162707582116127,0.9841755032539368
969766528020,-0.017431754618883133,0.0003799842670559883,-0.01588948257267475,0.14760129153728485,0.025733044371008873,0.9984577298164368
969771394480,-0.017431754618883133,0.0003799842670559883,-0.01588948257267475,0.19411008059978485,-0.03542418032884598,0.9642170071601868
969772493050,-0.013170696794986725,0.012097894214093685,0.024590566754341125,0.19411008059978485,-0.03542418032884598,0.9642170071601868
969776511900,-0.028084399178624153,0.0003799842670559883,0.0043505416251719,0.11116330325603485,-0.011895129457116127,1.0058735609054565
969781413700,-0.028084399178624153,0.0003799842670559883,0.0043505416251719,0.16334836184978485,-0.06316465884447098,0.9838092923164368
969782483150,-0.030214926227927208,0.021685272455215454,0.0032852771691977978,0.16334836184978485,-0.06316465884447098,0.9838092923164368
969786473290,-0.016366489231586456,-0.01453371811658144,0.0022200127132236958,0.07188718020915985,-0.10125059634447098,0.9863727688789368
969791425410,-0.016366489231586456,-0.01453371811658144,0.0022200127132236958,0.15162961184978485,-0.11525816470384598,0.9736469388008118
969792449980,0.0006777415983378887,-0.0038810735568404198,0.0011547482572495937,0.15162961184978485,-0.11525816470384598,0.9736469388008118
969796466410,0.0134609155356884,-0.007076866924762726,-0.00630210293456912,0.11647336184978485,-0.09850401431322098,1.0010212659835815
969801429590,0.0134609155356884,-0.010272660292685032,-0.005236838478595018,0.13093869388103485,-0.08037657290697098,0.9806049466133118
969806475570,0.025178825482726097,-0.010272660292685032,-0.0020410451106727123,0.13432614505290985,-0.09713072329759598,0.9817951321601868
969811446970,0.03157041221857071,-0.024121098220348358,-0.010563161224126816,0.12773434817790985,-0.07470030337572098,0.9914997220039368
969816469950,0.03583146631717682,-0.015598982572555542,-0.00630210293456912,0.18321530520915985,-0.04750914126634598,0.9759357571601868
969821426150,0.044353585690259933,-0.017729511484503746,-0.018020013347268105,0.16014401614665985,-0.04293150454759598,0.9880207180976868
969826511440,0.04861464351415634,-0.007076866924762726,-0.007367367390543222,0.19768063724040985,-0.013726184144616127,0.9856403470039368
969831396310,0.04222305491566658,-0.00920739583671093,-0.0020410451106727123,0.18605343997478485,0.019141247496008873,0.9829853177070618
969836541140,0.040092527866363525,-0.004946338012814522,-0.014824219048023224,0.19044797122478485,0.03690247982740402,0.9750202298164368
969841389720,0.040092527866363525,0.0025105131790041924,-0.014824219048023224,0.20582883059978485,0.05905824154615402,0.9855487942695618
969846510400,0.03263567388057709,-0.0017505446448922157,-0.004171574022620916,0.18797604739665985,0.09183412045240402,0.9867389798164368
969851384730,0.023048296570777893,0.012097894214093685,-0.004171574022620916,0.20500485599040985,0.12845520675182343,0.9754779934883118
969856514940,0.008134592324495316,0.0035757776349782944,-0.01269369013607502,0.16032712161540985,0.12836365401744843,0.9904010891914368
969861417260,-0.008909638971090317,0.008902099914848804,0.009676864370703697,0.19401852786540985,0.12580017745494843,0.9912250638008118
969866471940,-0.014235960319638252,0.009967365302145481,0.007546334993094206,0.16463010013103485,0.11536317318677902,0.9849079251289368
969871433420,-0.028084399178624153,0.009967365302145481,8.948380127549171e-05,0.14567868411540985,0.08789735287427902,0.9795063138008118
969876462760,-0.031280193477869034,0.009967365302145481,0.007546334993094206,0.16371457278728485,0.05777650326490402,0.9906757473945618
969881444110,-0.03873704746365547,0.005706306546926498,0.01606845110654831,0.14073483645915985,0.024817517027258873,0.9952533841133118
969886465700,-0.04086757451295853,0.0014452487230300903,0.007546334993094206,0.14659421145915985,0.003851940855383873,0.9819782376289368
969891396220,-0.03341072425246239,0.0014452487230300903,0.005415806081146002,0.13542477786540985,-0.04064268618822098,0.9869220852851868
969896511990,-0.019562283530831337,0.005706306546926498,0.012872656807303429,0.14897458255290985,-0.07058043032884598,0.9854572415351868
969901387330,-0.01849701814353466,-0.0038810735568404198,0.0043505416251719,0.12562863528728485,-0.07561583071947098,0.9839008450508118
969906531090,-0.0035833162255585194,-0.0028158091008663177,-0.007367367390543222,0.13148801028728485,-0.09044737368822098,0.9819782376289368
969911395380,-0.0003875228576362133,-0.007076866924762726,0.005415806081146002,0.14595334231853485,-0.09310240298509598,0.9871051907539368
969916516940,0.009199857711791992,-0.0028158091008663177,-0.005236838478595018,0.13862912356853485,-0.08797544986009598,0.9843586087226868
969921391090,0.018787238746881485,-0.008142131380736828,-0.00949789583683014,0.14943234622478485,-0.07048887759447098,0.9795063138008118
969926517240,0.029439883306622505,-0.011337924748659134,-0.008432632312178612,0.15272824466228485,-0.05849546939134598,0.9904010891914368
969931395540,0.030505146831274033,-0.007076866924762726,-0.0020410451106727123,0.16444699466228485,-0.03670591861009598,0.9861896634101868
969936496320,0.03157041221857071,-0.007076866924762726,-0.00949789583683014,0.16279904544353485,0.00018983148038387299,0.9775837063789368
969941403250,0.030505146831274033,-0.004946338012814522,-0.007367367390543222,0.17406003177165985,0.017951061949133873,0.9849994778633118
969946464240,0.026244089007377625,-0.006011602468788624,-0.0009757806546986103,0.18541257083415985,0.04019837826490402,0.9895771145820618
969951426190,0.02091776765882969,-0.0038810735568404198,-0.00630210293456912,0.17579953372478485,0.05924134701490402,0.9755695462226868
969956505860,0.008134592324495316,0.0003799842670559883,-0.0020410451106727123,0.17799679934978485,0.07205872982740402,0.9793232083320618
969961418530,0.008134592324495316,0.0025105131790041924,-0.0020410451106727123,0.18403927981853485,0.07535462826490402,0.9958027005195618
969966504230,0.0017430060543119907,0.0035757776349782944,8.948380127549171e-05,0.17085568606853485,0.07388978451490402,0.9766681790351868
969971391090,-0.008909638971090317,0.0014452487230300903,-0.008432632312178612,0.17085568606853485,0.07388978451490402,0.9766681790351868
969976513440,-0.014235960319638252,0.0014452487230300903,0.006481070537120104,0.17113034427165985,0.03809266537427902,0.9901264309883118
969981397880,-0.02169281244277954,0.011032628826797009,0.01606845110654831,0.15327756106853485,0.028937390074133873,0.9839923977851868
969986540770,-0.02275807596743107,0.007836836390197277,0.00861159898340702,0.15437619388103485,0.002661755308508873,0.9865558743476868
969991388630,-0.02275807596743107,0.0014452487230300903,0.007546334993094206,0.15144650638103485,-0.027275988832116127,0.9855487942695618
969996513820,-0.02169281244277954,0.0025105131790041924,0.010742127895355225,0.14000241458415985,-0.028466174378991127,0.9828022122383118
970001391460,-0.015301225706934929,0.0067715710029006,0.0043505416251719,0.14302365481853485,-0.030938098207116127,0.9849079251289368
970006506700,-0.00784437358379364,0.004641042090952396,8.948380127549171e-05,0.14430539309978485,-0.05373472720384598,0.9893024563789368
970011397750,-0.0035833162255585194,-0.0017505446448922157,0.0011547482572495937,0.14284054934978485,-0.05538267642259598,0.9832599759101868
970016484000,-0.0003875228576362133,0.0014452487230300903,-0.0020410451106727123,0.13753049075603485,-0.04512877017259598,0.9789569973945618
970021435710,0.006004063878208399,-0.004946338012814522,0.0011547482572495937,0.14000241458415985,-0.04320616275072098,0.9886615872383118
970026471290,0.01026512123644352,-0.007076866924762726,-0.0031063095666468143,0.14961545169353485,-0.03606504946947098,0.9880207180976868
970031443150,0.011330386623740196,-0.011337924748659134,-0.0009757806546986103,0.15758053958415985,-0.011528918519616127,0.9760273098945618
970036461750,0.01772197335958481,-0.006011602468788624,-0.0031063095666468143,0.16096799075603485,-0.001549670472741127,0.9825275540351868
970041432030,0.021983031183481216,-0.007076866924762726,-0.00949789583683014,0.16939084231853485,0.002112438902258873,0.9882953763008118
970046463610,0.019852502271533012,-0.0006852801889181137,-0.004171574022620916,0.17378537356853485,0.021796276792883873,0.9783161282539368
970051426200,0.009199857711791992,-0.0028158091008663177,-0.0020410451106727123,0.17094723880290985,0.03415589779615402,0.9752033352851868
970056526010,0.01026512123644352,-0.006011602468788624,-0.005236838478595018,0.18046872317790985,0.03772645443677902,0.9897602200508118
970061391790,0.011330386623740196,-0.0017505446448922157,-0.0031063095666468143,0.18916623294353485,0.04733949154615402,0.9890277981758118
970066507170,0.0028082705102860928,0.0014452487230300903,0.005415806081146002,0.17296139895915985,0.05045228451490402,0.9771259427070618
970071387430,-0.0035833162255585194,0.0025105131790041924,-0.0009757806546986103,0.17488400638103485,0.03974061459302902,0.9840839505195618
970076510360,-0.005713845137506723,0.0035757776349782944,8.948380127549171e-05,0.17570798099040985,0.030493786558508873,0.9869220852851868
970081401330,-0.012105431407690048,0.0014452487230300903,0.0032852771691977978,0.16234128177165985,0.03378968685865402,0.9785907864570618
970086526760,-0.008909638971090317,0.005706306546926498,0.0022200127132236958,0.15730588138103485,0.018683483824133873,0.9830768704414368
970091389760,-0.01104016788303852,0.004641042090952396,0.0022200127132236958,0.16279904544353485,-0.002648303285241127,0.9912250638008118
970096510170,-0.016366489231586456,0.0035757776349782944,0.005415806081146002,0.14696042239665985,-0.004296252503991127,0.9819782376289368
970101437850,-0.013170696794986725,0.0035757776349782944,0.0032852771691977978,0.13972775638103485,-0.010613391175866127,0.9847248196601868
970106464480,-0.0014527873136103153,0.005706306546926498,0.0011547482572495937,0.13991086184978485,-0.026085803285241127,0.9898517727851868
970111420530,-0.008909638971090317,0.0014452487230300903,-0.0009757806546986103,0.13862912356853485,-0.03331846743822098,0.9871967434883118
970116471210,-0.0014527873136103153,0.0003799842670559883,0.0043505416251719,0.13615719974040985,-0.024071643128991127,0.9754779934883118
970121428290,-0.0003875228576362133,-0.0017505446448922157,0.0011547482572495937,0.14458005130290985,-0.031121203675866127,0.9863727688789368
970126503750,0.004938799422234297,-0.0038810735568404198,-0.004171574022620916,0.14906613528728485,-0.029931018128991127,0.9936969876289368
970131397740,0.007069328334182501,-0.010272660292685032,8.948380127549171e-05,0.15181271731853485,-0.017662951722741127,0.9756610989570618
970136522510,0.0134609155356884,-0.007076866924762726,0.0032852771691977978,0.15538327395915985,-0.009880969300866127,0.9785907864570618
970141388340,0.0134609155356884,-0.007076866924762726,-0.007367367390543222,0.16939084231853485,-0.006951281800866127,0.9942463040351868
970146518730,0.006004063878208399,-0.00920739583671093,-0.0031063095666468143,0.17561642825603485,0.004859020933508873,0.9846332669258118
970151389610,0.0028082705102860928,-0.004946338012814522,-0.0031063095666468143,0.17167966067790985,0.022528698667883873,0.9759357571601868
970156523980,0.01026512123644352,-0.004946338012814522,8.948380127549171e-05,0.17589108645915985,0.018408825621008873,0.9865558743476868
970161389960,0.01026512123644352,-0.0017505446448922157,-0.0031063095666468143,0.18532101809978485,0.019415905699133873,0.9883869290351868
970166512660,0.006004063878208399,0.0067715710029006,0.0022200127132236958,0.17479245364665985,0.03470521420240402,0.9774006009101868
970171384540,0.0028082705102860928,0.004641042090952396,-0.0009757806546986103,0.16929928958415985,0.03305726498365402,0.9798725247383118
970176551880,0.004938799422234297,0.0067715710029006,0.0022200127132236958,0.17625729739665985,0.025824597105383873,0.9857318997383118
970181355000,-0.006779109593480825,-0.0017505446448922157,8.948380127549171e-05,0.16023556888103485,0.030951550230383873,0.9817951321601868
970186541660,-0.00784437358379364,0.0035757776349782944,0.005415806081146002,0.14952389895915985,0.020972302183508873,0.9822528958320618
970191356710,-0.008909638971090317,0.0025105131790041924,-0.004171574022620916,0.16032712161540985,0.005774548277258873,0.9909504055976868
970196475510,-0.0035833162255585194,0.005706306546926498,0.0022200127132236958,0.15016476809978485,0.007147839292883873,0.9878376126289368
970201433310,-0.00784437358379364,0.0067715710029006,0.0022200127132236958,0.14229123294353485,0.003577282652258873,0.9800556302070618
970206511750,-0.013170696794986725,0.0003799842670559883,-0.0020410451106727123,0.14586178958415985,-0.009789416566491127,0.9872882962226868
970211383090,-0.00784437358379364,-0.0006852801889181137,0.0011547482572495937,0.14677731692790985,-0.020317981019616127,0.9892109036445618
970216517000,-0.0035833162255585194,0.0003799842670559883,0.007546334993094206,0.14421384036540985,-0.016015002503991127,0.9806049466133118
970221386040,-0.0025180517695844173,-0.007076866924762726,0.0032852771691977978,0.14723508059978485,-0.023430773988366127,0.9843586087226868
970226513520,0.0038735349662601948,-0.004946338012814522,-0.0020410451106727123,0.15291135013103485,-0.023888537660241127,0.9912250638008118
970231416380,0.0006777415983378887,-0.006011602468788624,-0.0020410451106727123,0.15803830325603485,-0.017022082582116127,0.9791401028633118
970236521830,0.007069328334182501,-0.004946338012814522,8.948380127549171e-05,0.15648190677165985,-0.014733264222741127,0.9767597317695618
970241390110,0.01026512123644352,-0.0038810735568404198,-0.0031063095666468143,0.16371457278728485,-0.011803576722741127,0.9866474270820618
970246551930,0.004938799422234297,-0.006011602468788624,-0.00630210293456912,0.17470090091228485,-0.002282092347741127,0.9855487942695618
970251386850,0.007069328334182501,-0.0038810735568404198,-0.0031063095666468143,0.17085568606853485,0.010260632261633873,0.9746540188789368
970256466330,0.007069328334182501,0.0003799842670559883,-0.004171574022620916,0.17515866458415985,0.010077526792883873,0.9803302884101868
970261427030,0.011330386623740196,-0.0017505446448922157,-0.0020410451106727123,0.18275754153728485,0.009070446714758873,0.9871967434883118
970266470250,0.01026512123644352,-0.0028158091008663177,0.0032852771691977978,0.17277829349040985,0.022162487730383873,0.9774006009101868
970271425260,0.0038735349662601948,0.005706306546926498,8.948380127549171e-05,0.16408078372478485,0.026465466246008873,0.9803302884101868
970276486720,0.0017430060543119907,0.0003799842670559883,-0.0020410451106727123,0.16939084231853485,0.023901989683508873,0.9876545071601868
970281428750,0.0017430060543119907,0.005706306546926498,-0.0009757806546986103,0.16188351809978485,0.019232800230383873,0.9835346341133118
970286472170,-0.005713845137506723,0.004641042090952396,0.0022200127132236958,0.15483395755290985,0.025366833433508873,0.9819782376289368
970291428720,-0.004648580681532621,0.005706306546926498,8.948380127549171e-05,0.15703122317790985,0.012366345152258873,0.9941547513008118
970296489650,-0.004648580681532621,-0.0017505446448922157,0.0022200127132236958,0.15428464114665985,0.007147839292883873,0.9863727688789368
970301401380,0.0006777415983378887,0.0035757776349782944,0.006481070537120104,0.14750973880290985,0.010352184996008873,0.9789569973945618
970306528520,-0.008909638971090317,0.0025105131790041924,0.0022200127132236958,0.14961545169353485,-0.004479357972741127,0.9877460598945618
970311392860,-0.00784437358379364,0.0003799842670559883,0.0022200127132236958,0.15034787356853485,-0.017388293519616127,0.9903095364570618
